header,program_time,accX,accY,accZ,gyroX,gyroY,gyroZ
246,7891,0.05000000074505806,-0.029999999329447746,-0.25,0.0,0.004363323096185923,0.0021816615480929613
246,9610,0.029999999329447746,-0.029999999329447746,-0.25,0.0,0.0,0.0010908307740464807
246,10512,0.07999999821186066,-0.019999999552965164,-0.25999999046325684,0.0021816615480929613,-0.0010908307740464807,0.0
246,11543,0.05000000074505806,-0.009999999776482582,-0.25,0.0,0.009817477315664291,-0.0021816615480929613
246,12556,0.05999999865889549,0.05999999865889549,-0.23999999463558197,0.0010908307740464807,0.0054541537538170815,-0.0010908307740464807
246,13571,0.05000000074505806,-0.05999999865889549,-0.25,0.0010908307740464807,-0.0010908307740464807,0.0021816615480929613
246,14591,0.07000000029802322,0.009999999776482582,-0.25,0.0,-0.004363323096185923,-0.0021816615480929613
246,15613,0.07000000029802322,-0.03999999910593033,-0.27000001072883606,0.0,0.003272492438554764,0.004363323096185923
246,16531,0.03999999910593033,-0.12999999523162842,-0.27000001072883606,-0.0021816615480929613,0.0,-0.0010908307740464807
246,17553,0.11999999731779099,-0.20999999344348907,-0.25,0.0010908307740464807,0.0021816615480929613,-0.0010908307740464807
246,18578,0.07000000029802322,-0.009999999776482582,-0.28999999165534973,0.0021816615480929613,0.003272492438554764,-0.0010908307740464807
246,19497,0.019999999552965164,-0.09000000357627869,-0.2800000011920929,0.0,0.006544984877109528,0.0
246,20619,-0.05999999865889549,0.019999999552965164,-0.25999999046325684,-0.0010908307740464807,-0.0010908307740464807,-0.0010908307740464807
246,21544,0.009999999776482582,-0.07000000029802322,-0.28999999165534973,0.003272492438554764,0.0,0.0
246,22571,0.029999999329447746,-0.03999999910593033,-0.27000001072883606,0.0010908307740464807,-0.0010908307740464807,0.0
246,23599,0.009999999776482582,-0.05000000074505806,-0.2800000011920929,-0.0010908307740464807,0.0021816615480929613,-0.0021816615480929613
246,24629,-0.009999999776482582,0.11999999731779099,-0.23000000417232513,-0.0010908307740464807,-0.008726646192371845,0.0010908307740464807
246,25560,0.0,0.019999999552965164,-0.27000001072883606,0.0010908307740464807,0.004363323096185923,0.0
246,26593,0.019999999552965164,0.009999999776482582,-0.27000001072883606,0.0,0.004363323096185923,-0.0021816615480929613
246,27627,0.0,0.009999999776482582,-0.28999999165534973,0.0,0.0054541537538170815,0.0
246,28557,0.029999999329447746,-0.07000000029802322,-0.28999999165534973,0.0010908307740464807,-0.004363323096185923,0.003272492438554764
246,29587,0.0,-0.05999999865889549,-0.28999999165534973,0.0,0.0021816615480929613,0.0
246,30622,-0.009999999776482582,-0.03999999910593033,-0.28999999165534973,0.0,-0.0021816615480929613,0.0021816615480929613
246,31554,-0.07999999821186066,-0.07999999821186066,-0.25999999046325684,-0.0021816615480929613,0.0,0.0021816615480929613
246,32589,0.07999999821186066,-0.05999999865889549,-0.27000001072883606,0.0,0.004363323096185923,-0.0010908307740464807
246,33623,0.07999999821186066,-0.09000000357627869,-0.23999999463558197,0.0,0.007635815534740686,-0.0021816615480929613
246,34557,0.12999999523162842,-0.03999999910593033,-0.2800000011920929,-0.0021816615480929613,-0.0010908307740464807,0.0010908307740464807
246,35608,0.15000000596046448,0.009999999776482582,-0.25,0.0021816615480929613,0.006544984877109528,0.0021816615480929613
246,37473,0.14000000059604645,-0.029999999329447746,-0.25999999046325684,0.0,-0.0021816615480929613,-0.0021816615480929613
246,38525,0.09000000357627869,0.019999999552965164,-0.25999999046325684,0.0021816615480929613,-0.0021816615480929613,0.0021816615480929613
246,39473,0.009999999776482582,0.0,-0.25999999046325684,0.0010908307740464807,-0.021816615015268326,0.004363323096185923
246,40334,0.1899999976158142,-0.009999999776482582,-0.27000001072883606,0.003272492438554764,-0.004363323096185923,0.0021816615480929613
246,41479,-0.18000000715255737,0.07000000029802322,-0.28999999165534973,-0.0010908307740464807,0.0,-0.0010908307740464807
246,42534,0.07999999821186066,-0.019999999552965164,-0.27000001072883606,0.0,-0.003272492438554764,0.0021816615480929613
246,43488,0.0,0.029999999329447746,-0.28999999165534973,0.0010908307740464807,-0.0021816615480929613,-0.0021816615480929613
246,44441,0.10000000149011612,-0.23000000417232513,-0.25999999046325684,-0.0021816615480929613,-0.0021816615480929613,-0.0021816615480929613
246,45494,-0.009999999776482582,0.10000000149011612,-0.2800000011920929,-0.003272492438554764,0.006544984877109528,-0.0021816615480929613
246,46448,0.05000000074505806,0.009999999776482582,-0.28999999165534973,-0.0021816615480929613,-0.008726646192371845,0.0021816615480929613
246,47504,-0.05000000074505806,-0.07999999821186066,-0.27000001072883606,0.0010908307740464807,-0.011999138630926609,0.0010908307740464807
246,48464,-0.05000000074505806,-0.03999999910593033,-0.25,-0.0010908307740464807,-0.0021816615480929613,-0.0010908307740464807
246,49389,-0.03999999910593033,-0.05000000074505806,-0.2800000011920929,0.0010908307740464807,0.0,-0.0010908307740464807
246,50484,-0.07999999821186066,0.0,-0.2800000011920929,-0.004363323096185923,0.0021816615480929613,0.0
246,51542,0.0,-0.03999999910593033,-0.25999999046325684,0.0,-0.0054541537538170815,0.0010908307740464807
246,52504,0.019999999552965164,0.0,-0.27000001072883606,-0.003272492438554764,0.0021816615480929613,-0.0010908307740464807
246,53569,-0.03999999910593033,0.0,-0.23999999463558197,-0.0021816615480929613,0.0010908307740464807,0.0
246,54531,0.0,0.07000000029802322,-0.33000001311302185,0.0010908307740464807,-0.004363323096185923,0.0010908307740464807
246,55492,0.03999999910593033,-0.05999999865889549,-0.2800000011920929,-0.0021816615480929613,0.004363323096185923,0.0
246,56455,0.009999999776482582,0.0,-0.28999999165534973,-0.0010908307740464807,-0.008726646192371845,0.0010908307740464807
246,57520,0.009999999776482582,0.029999999329447746,-0.27000001072883606,0.0,-0.006544984877109528,0.0
246,58483,0.009999999776482582,-0.029999999329447746,-0.28999999165534973,-0.003272492438554764,0.0,0.003272492438554764
246,59550,0.03999999910593033,-0.03999999910593033,-0.27000001072883606,0.0021816615480929613,-0.004363323096185923,0.0
246,60518,0.03999999910593033,-0.009999999776482582,-0.25999999046325684,0.0,-0.003272492438554764,-0.0021816615480929613
246,61439,-0.03999999910593033,-0.05999999865889549,-0.2800000011920929,0.0021816615480929613,-0.004363323096185923,-0.0010908307740464807
246,62550,-0.029999999329447746,0.05999999865889549,-0.28999999165534973,0.0021816615480929613,-0.0054541537538170815,0.0021816615480929613
246,63513,0.0,0.0,-0.30000001192092896,0.0,0.0021816615480929613,0.0010908307740464807
246,64479,-0.009999999776482582,-0.019999999552965164,-0.28999999165534973,0.003272492438554764,-0.0021816615480929613,-0.0010908307740464807
246,65546,-0.009999999776482582,-0.03999999910593033,-0.28999999165534973,-0.0010908307740464807,-0.0021816615480929613,0.0
246,66517,0.0,-0.009999999776482582,-0.2800000011920929,-0.0021816615480929613,0.007635815534740686,0.0
246,67590,0.05000000074505806,-0.019999999552965164,-0.25,-0.0021816615480929613,0.0,-0.0010908307740464807
246,68561,-0.03999999910593033,0.009999999776482582,-0.28999999165534973,0.0021816615480929613,0.007635815534740686,-0.003272492438554764
246,69531,-0.029999999329447746,0.009999999776482582,-0.28999999165534973,-0.003272492438554764,0.0021816615480929613,0.0
246,70501,-0.07000000029802322,-0.019999999552965164,-0.25999999046325684,0.0010908307740464807,-0.003272492438554764,0.0
246,71464,-0.09000000357627869,0.0,-0.2800000011920929,0.0,0.0,0.0
246,72536,-0.09000000357627869,-0.019999999552965164,-0.25999999046325684,-0.003272492438554764,-0.013089969754219055,0.0
246,73504,-0.07000000029802322,0.009999999776482582,-0.3199999928474426,0.0010908307740464807,0.009817477315664291,-0.0021816615480929613
246,74476,-0.029999999329447746,-0.03999999910593033,-0.28999999165534973,-0.0010908307740464807,0.0,-0.0021816615480929613
246,75551,-0.11999999731779099,0.029999999329447746,-0.3199999928474426,0.003272492438554764,0.0021816615480929613,0.0
246,76521,-0.10000000149011612,0.029999999329447746,-0.2800000011920929,-0.0010908307740464807,-0.0054541537538170815,0.0
246,77494,-0.029999999329447746,-0.05000000074505806,-0.2800000011920929,0.0021816615480929613,0.0054541537538170815,0.0010908307740464807
246,78570,-0.07999999821186066,-0.029999999329447746,-0.2800000011920929,0.0010908307740464807,-0.003272492438554764,-0.0010908307740464807
246,79542,-0.1599999964237213,-0.12999999523162842,-0.28999999165534973,0.0,-0.004363323096185923,-0.0010908307740464807
246,80516,0.009999999776482582,0.019999999552965164,-0.2800000011920929,0.0,0.0021816615480929613,0.0010908307740464807
246,81490,0.019999999552965164,-0.14000000059604645,-0.23999999463558197,0.0,-0.0010908307740464807,0.0021816615480929613
246,82571,-0.029999999329447746,-0.009999999776482582,-0.28999999165534973,0.0010908307740464807,-0.003272492438554764,0.0010908307740464807
246,83547,-0.09000000357627869,-0.019999999552965164,-0.28999999165534973,0.0,-0.0010908307740464807,-0.0010908307740464807
246,84518,-0.029999999329447746,-0.09000000357627869,-0.2800000011920929,0.0010908307740464807,-0.0010908307740464807,-0.0010908307740464807
246,85496,0.029999999329447746,-0.05000000074505806,-0.27000001072883606,0.0010908307740464807,0.003272492438554764,0.0021816615480929613
246,86575,-0.029999999329447746,0.019999999552965164,-0.28999999165534973,0.0021816615480929613,0.006544984877109528,-0.0010908307740464807
246,87549,0.0,-0.03999999910593033,-0.2800000011920929,0.0,0.004363323096185923,0.0010908307740464807
246,88524,-0.009999999776482582,-0.05000000074505806,-0.25,-0.003272492438554764,-0.003272492438554764,0.0010908307740464807
246,89500,0.019999999552965164,0.0,-0.27000001072883606,-0.003272492438554764,-0.004363323096185923,0.0010908307740464807
246,90576,0.019999999552965164,-0.10000000149011612,-0.23000000417232513,0.0010908307740464807,0.0021816615480929613,-0.003272492438554764
246,91555,-0.029999999329447746,0.0,-0.30000001192092896,0.0021816615480929613,0.0010908307740464807,-0.0021816615480929613
246,92535,0.0,-0.03999999910593033,-0.23999999463558197,0.0010908307740464807,-0.0010908307740464807,0.0
246,93517,0.0,0.0,-0.27000001072883606,0.0010908307740464807,0.0010908307740464807,0.0
246,94606,0.029999999329447746,-0.03999999910593033,-0.28999999165534973,-0.0021816615480929613,0.0010908307740464807,0.0
246,95597,-0.019999999552965164,-0.05000000074505806,-0.28999999165534973,0.0,0.003272492438554764,-0.0010908307740464807
246,96586,-0.09000000357627869,0.019999999552965164,-0.30000001192092896,-0.0010908307740464807,-0.0021816615480929613,0.0
246,97575,-0.019999999552965164,0.0,-0.3100000023841858,0.003272492438554764,0.013089969754219055,-0.0021816615480929613
246,98571,0.019999999552965164,0.009999999776482582,-0.30000001192092896,-0.0010908307740464807,0.0,-0.0010908307740464807
246,99559,0.029999999329447746,0.03999999910593033,-0.27000001072883606,0.0010908307740464807,-0.006544984877109528,0.0021816615480929613
246,100546,0.03999999910593033,-0.05000000074505806,-0.2800000011920929,0.0,0.0010908307740464807,0.0010908307740464807
246,101531,-0.009999999776482582,-0.09000000357627869,-0.30000001192092896,0.0010908307740464807,-0.0021816615480929613,0.0010908307740464807
246,102515,0.0,-0.029999999329447746,-0.28999999165534973,0.0,-0.0021816615480929613,0.0010908307740464807
246,103503,0.0,-0.019999999552965164,-0.28999999165534973,-0.0010908307740464807,-0.0010908307740464807,-0.0021816615480929613
246,104587,0.05000000074505806,-0.019999999552965164,-0.25999999046325684,-0.0010908307740464807,0.003272492438554764,0.0010908307740464807
246,105566,0.0,0.009999999776482582,-0.28999999165534973,0.0,-0.0054541537538170815,0.0
246,106553,0.009999999776482582,-0.019999999552965164,-0.23000000417232513,0.0,-0.004363323096185923,0.0
246,107531,-0.009999999776482582,0.03999999910593033,-0.28999999165534973,0.0010908307740464807,-0.004363323096185923,-0.0021816615480929613
246,108510,0.029999999329447746,-0.05999999865889549,-0.25999999046325684,-0.004363323096185923,0.006544984877109528,-0.0021816615480929613
246,109493,0.03999999910593033,0.009999999776482582,-0.25999999046325684,-0.0021816615480929613,-0.003272492438554764,0.0
246,110565,0.009999999776482582,0.0,-0.2800000011920929,-0.0010908307740464807,0.004363323096185923,0.0
246,111539,0.0,-0.009999999776482582,-0.2800000011920929,0.0,0.008726646192371845,-0.0010908307740464807
246,112518,0.029999999329447746,0.05000000074505806,-0.28999999165534973,-0.0021816615480929613,0.0054541537538170815,0.0010908307740464807
246,113603,0.009999999776482582,-0.03999999910593033,-0.28999999165534973,0.0010908307740464807,0.010908307507634163,-0.0010908307740464807
246,115531,-0.009999999776482582,0.0,-0.28999999165534973,-0.0054541537538170815,0.0021816615480929613,0.0021816615480929613
246,116514,0.009999999776482582,0.009999999776482582,-0.28999999165534973,0.0,-0.0021816615480929613,-0.0010908307740464807
246,117474,0.0,-0.009999999776482582,-0.28999999165534973,0.0010908307740464807,-0.006544984877109528,0.003272492438554764
246,118579,-0.009999999776482582,0.009999999776482582,-0.28999999165534973,0.0,0.003272492438554764,0.0021816615480929613
246,119564,0.0,0.05000000074505806,-0.28999999165534973,-0.0010908307740464807,0.003272492438554764,0.0010908307740464807
246,120549,0.05000000074505806,-0.09000000357627869,-0.23000000417232513,0.0,-0.010908307507634163,0.0054541537538170815
246,121535,-0.009999999776482582,-0.07000000029802322,-0.27000001072883606,0.0010908307740464807,0.0010908307740464807,-0.0010908307740464807
246,122520,-0.019999999552965164,0.20000000298023224,-0.25999999046325684,0.004363323096185923,0.003272492438554764,0.0
246,123504,0.029999999329447746,-0.10000000149011612,-0.27000001072883606,-0.003272492438554764,0.0,0.0021816615480929613
246,124586,0.009999999776482582,-0.05999999865889549,-0.2800000011920929,0.0,-0.0021816615480929613,0.0010908307740464807
246,125570,0.0,0.0,-0.30000001192092896,0.0,0.0054541537538170815,0.0
246,126554,0.0,-0.05000000074505806,-0.27000001072883606,0.0,-0.0021816615480929613,-0.0010908307740464807
246,127646,0.03999999910593033,-0.07000000029802322,-0.2800000011920929,0.0021816615480929613,-0.0021816615480929613,0.0054541537538170815
246,129575,0.0,-0.05000000074505806,-0.2800000011920929,-0.0010908307740464807,0.0010908307740464807,0.0
246,130556,0.07000000029802322,0.03999999910593033,-0.28999999165534973,0.0010908307740464807,-0.003272492438554764,0.0021816615480929613
246,131532,-0.009999999776482582,0.05000000074505806,-0.27000001072883606,-0.0010908307740464807,0.003272492438554764,-0.003272492438554764
246,132511,-0.019999999552965164,-0.009999999776482582,-0.28999999165534973,0.0,-0.007635815534740686,0.003272492438554764
246,133591,-0.019999999552965164,0.03999999910593033,-0.28999999165534973,-0.0010908307740464807,0.0021816615480929613,-0.0010908307740464807
246,134565,-0.12999999523162842,0.0,-0.2800000011920929,0.0,0.003272492438554764,-0.003272492438554764
246,135544,-0.07000000029802322,-0.029999999329447746,-0.28999999165534973,0.0,-0.010908307507634163,0.0010908307740464807
246,136520,0.12999999523162842,-0.11999999731779099,-0.25999999046325684,0.0010908307740464807,0.011999138630926609,-0.003272492438554764
246,137595,0.009999999776482582,-0.05000000074505806,-0.30000001192092896,0.0,-0.0010908307740464807,0.003272492438554764
246,138569,0.029999999329447746,-0.49000000953674316,-0.12999999523162842,-0.003272492438554764,0.004363323096185923,-0.0021816615480929613
246,139544,-0.009999999776482582,0.0,-0.28999999165534973,0.0,0.0010908307740464807,-0.0010908307740464807
246,140524,0.029999999329447746,0.019999999552965164,-0.28999999165534973,-0.0010908307740464807,-0.003272492438554764,-0.0021816615480929613
246,141497,0.0,-0.05999999865889549,-0.30000001192092896,0.0,0.0010908307740464807,0.0
246,142579,0.0,0.05000000074505806,-0.28999999165534973,-0.0021816615480929613,-0.009817477315664291,0.0010908307740464807
246,143558,0.029999999329447746,0.0,-0.28999999165534973,0.0,0.0021816615480929613,0.0021816615480929613
246,144538,0.10000000149011612,-0.009999999776482582,-0.27000001072883606,-0.0021816615480929613,0.0,-0.0021816615480929613
246,145520,0.03999999910593033,0.03999999910593033,-0.28999999165534973,-0.0010908307740464807,0.0010908307740464807,-0.0021816615480929613
246,146502,0.07999999821186066,0.0,-0.2800000011920929,0.0,0.0021816615480929613,-0.0010908307740464807
246,147586,0.05999999865889549,0.019999999552965164,-0.28999999165534973,0.0,-0.0010908307740464807,0.0
246,148573,0.10000000149011612,-0.1599999964237213,-0.20000000298023224,0.0,0.0,0.003272492438554764
246,149557,0.09000000357627869,-0.11999999731779099,-0.28999999165534973,0.0021816615480929613,0.006544984877109528,-0.0010908307740464807
246,150538,0.07999999821186066,0.0,-0.33000001311302185,0.0,0.0,0.0
246,151519,0.05999999865889549,-0.029999999329447746,-0.33000001311302185,-0.0021816615480929613,0.0,-0.0010908307740464807
246,152609,0.10000000149011612,0.07000000029802322,-0.30000001192092896,0.0,-0.003272492438554764,0.0
246,153589,0.12999999523162842,-0.03999999910593033,-0.27000001072883606,-0.0010908307740464807,-0.0010908307740464807,-0.0010908307740464807
246,154567,0.009999999776482582,-0.07999999821186066,-0.27000001072883606,0.0,0.0021816615480929613,0.0
246,155550,0.05999999865889549,0.009999999776482582,-0.30000001192092896,0.0021816615480929613,0.0021816615480929613,0.0
246,156535,0.09000000357627869,-0.009999999776482582,-0.2800000011920929,0.0010908307740464807,0.0021816615480929613,0.0021816615480929613
246,157521,0.07000000029802322,0.019999999552965164,-0.2800000011920929,0.0,-0.006544984877109528,0.0021816615480929613
246,158602,0.11999999731779099,-0.009999999776482582,-0.28999999165534973,-0.0010908307740464807,-0.0054541537538170815,0.0054541537538170815
246,159589,-0.029999999329447746,0.009999999776482582,-0.30000001192092896,-0.0010908307740464807,-0.01636246219277382,0.004363323096185923
246,160574,0.0,0.009999999776482582,-0.33000001311302185,0.0021816615480929613,0.008726646192371845,-0.0010908307740464807
246,161558,-0.009999999776482582,-0.09000000357627869,-0.30000001192092896,0.0010908307740464807,-0.008726646192371845,0.0
246,162543,-0.019999999552965164,0.019999999552965164,-0.2800000011920929,0.0021816615480929613,0.0,0.0054541537538170815
246,163529,0.0,-0.07999999821186066,-0.30000001192092896,0.0,0.003272492438554764,-0.0021816615480929613
246,164514,-0.03999999910593033,0.019999999552965164,-0.25,-0.0021816615480929613,0.0054541537538170815,0.0
246,165600,-0.05000000074505806,-0.07999999821186066,-0.27000001072883606,-0.0010908307740464807,0.0010908307740464807,-0.0021816615480929613
246,166586,-0.4099999964237213,-0.1599999964237213,-0.33000001311302185,0.0,0.0,0.0
246,167587,-0.25,-0.05999999865889549,-0.30000001192092896,0.0010908307740464807,0.0054541537538170815,0.003272492438554764
246,168580,-0.20999999344348907,-0.019999999552965164,-0.28999999165534973,-0.0010908307740464807,0.008726646192371845,-0.0010908307740464807
246,169566,0.009999999776482582,0.0,-0.30000001192092896,0.0,-0.0021816615480929613,-0.0010908307740464807
246,170557,-0.019999999552965164,-0.05000000074505806,-0.30000001192092896,0.0010908307740464807,-0.0010908307740464807,0.0010908307740464807
246,171542,-0.05000000074505806,-0.019999999552965164,-0.28999999165534973,0.0,-0.003272492438554764,0.0010908307740464807
246,172531,-0.03999999910593033,-0.019999999552965164,-0.2800000011920929,-0.0021816615480929613,-0.0054541537538170815,-0.0010908307740464807
246,173519,-0.05999999865889549,-0.019999999552965164,-0.2800000011920929,-0.0010908307740464807,0.006544984877109528,0.0
246,174510,0.18000000715255737,0.009999999776482582,-0.30000001192092896,-0.0010908307740464807,0.0054541537538170815,-0.0021816615480929613
246,175598,0.03999999910593033,0.03999999910593033,-0.3100000023841858,0.0,0.0054541537538170815,0.0
246,176588,-0.2199999988079071,-0.10000000149011612,-0.33000001311302185,-0.0010908307740464807,0.0021816615480929613,0.003272492438554764
246,177576,-0.07999999821186066,0.0,-0.30000001192092896,0.0,-0.0021816615480929613,0.0010908307740464807
246,178564,-0.05999999865889549,-0.12999999523162842,-0.27000001072883606,0.0010908307740464807,0.004363323096185923,-0.0010908307740464807
246,179552,-0.05000000074505806,-0.019999999552965164,-0.27000001072883606,-0.0010908307740464807,-0.007635815534740686,0.0010908307740464807
246,180536,0.07000000029802322,-0.12999999523162842,-0.3499999940395355,-0.0010908307740464807,0.009817477315664291,-0.0010908307740464807
246,181526,0.09000000357627869,0.029999999329447746,-0.28999999165534973,0.0,0.0,0.003272492438554764
246,182511,0.09000000357627869,-0.019999999552965164,-0.2800000011920929,0.0010908307740464807,0.0021816615480929613,0.0
246,183596,0.07999999821186066,-0.019999999552965164,-0.2800000011920929,0.0021816615480929613,0.0010908307740464807,0.0010908307740464807
246,184580,0.07000000029802322,0.009999999776482582,-0.30000001192092896,-0.0010908307740464807,-0.007635815534740686,-0.0010908307740464807
246,185563,0.10000000149011612,0.05999999865889549,-0.2800000011920929,-0.0021816615480929613,0.006544984877109528,-0.0010908307740464807
246,186550,0.10000000149011612,-0.07000000029802322,-0.2800000011920929,0.0010908307740464807,0.0021816615480929613,0.0
246,187538,0.07999999821186066,-0.03999999910593033,-0.27000001072883606,0.0,0.0021816615480929613,0.0010908307740464807
246,188524,0.10999999940395355,-0.07000000029802322,-0.33000001311302185,-0.003272492438554764,0.013089969754219055,-0.0021816615480929613
246,189411,0.07000000029802322,-0.009999999776482582,-0.3100000023841858,0.0021816615480929613,-0.015271631069481373,0.0010908307740464807
246,190601,0.03999999910593033,0.0,-0.2800000011920929,-0.0010908307740464807,-0.0054541537538170815,0.0
246,191590,0.07999999821186066,-0.009999999776482582,-0.27000001072883606,0.0010908307740464807,0.007635815534740686,-0.0021816615480929613
246,192578,-0.009999999776482582,0.10000000149011612,-0.2800000011920929,-0.0010908307740464807,-0.0021816615480929613,0.0021816615480929613
246,193566,-0.009999999776482582,-0.07000000029802322,-0.27000001072883606,-0.0010908307740464807,0.0,0.0021816615480929613
246,194561,0.05999999865889549,-0.029999999329447746,-0.25999999046325684,-0.0010908307740464807,0.0,0.0021816615480929613
246,195558,0.05000000074505806,0.009999999776482582,-0.30000001192092896,0.0021816615480929613,-0.0010908307740464807,0.0010908307740464807
246,196551,0.05000000074505806,-0.05000000074505806,-0.30000001192092896,-0.0010908307740464807,0.003272492438554764,0.0
246,197541,0.07000000029802322,0.0,-0.28999999165534973,0.0,0.0054541537538170815,-0.0010908307740464807
246,198536,-0.019999999552965164,-0.029999999329447746,-0.3100000023841858,0.0,-0.007635815534740686,0.0010908307740464807
246,199520,0.07000000029802322,-0.019999999552965164,-0.30000001192092896,-0.0021816615480929613,-0.0010908307740464807,-0.0010908307740464807
246,200508,0.09000000357627869,0.0,-0.28999999165534973,0.0010908307740464807,0.0021816615480929613,0.0021816615480929613
246,201599,0.09000000357627869,-0.009999999776482582,-0.27000001072883606,0.0,-0.0010908307740464807,-0.0010908307740464807
246,202589,0.10000000149011612,0.009999999776482582,-0.3199999928474426,0.0010908307740464807,0.0010908307740464807,-0.0010908307740464807
246,203581,0.09000000357627869,-0.03999999910593033,-0.30000001192092896,0.0010908307740464807,0.0,0.0
246,204571,0.09000000357627869,0.0,-0.3199999928474426,0.0,0.0,0.0
246,205562,0.05999999865889549,0.009999999776482582,-0.30000001192092896,0.0021816615480929613,-0.007635815534740686,0.0010908307740464807
246,206561,0.12999999523162842,-0.019999999552965164,-0.3199999928474426,-0.0021816615480929613,0.003272492438554764,-0.0021816615480929613
246,207552,0.09000000357627869,-0.019999999552965164,-0.30000001192092896,0.0,0.0,0.0010908307740464807
246,208542,-0.05000000074505806,0.0,-0.3100000023841858,0.0,-0.004363323096185923,0.0010908307740464807
246,209636,0.07000000029802322,-0.019999999552965164,-0.2800000011920929,-0.0010908307740464807,-0.004363323096185923,0.0
246,210633,0.10999999940395355,-0.029999999329447746,-0.3100000023841858,-0.0010908307740464807,0.0010908307740464807,0.0
246,212574,0.10000000149011612,-0.009999999776482582,-0.25999999046325684,0.0,-0.0021816615480929613,0.0
246,213569,0.09000000357627869,-0.019999999552965164,-0.30000001192092896,-0.0010908307740464807,0.0,-0.0010908307740464807
246,214570,0.14000000059604645,0.0,-0.30000001192092896,0.0,0.0021816615480929613,0.0021816615480929613
246,215571,0.10999999940395355,-0.019999999552965164,-0.2800000011920929,-0.0021816615480929613,0.0010908307740464807,0.0010908307740464807
246,216573,0.05000000074505806,-0.10999999940395355,-0.2800000011920929,-0.0010908307740464807,-0.0010908307740464807,0.0010908307740464807
246,217575,0.10999999940395355,-0.029999999329447746,-0.2800000011920929,0.003272492438554764,-0.0054541537538170815,0.0010908307740464807
246,218579,0.11999999731779099,-0.05999999865889549,-0.2800000011920929,0.0,0.013089969754219055,-0.0010908307740464807
246,219584,0.10999999940395355,-0.019999999552965164,-0.2800000011920929,-0.0021816615480929613,-0.007635815534740686,0.004363323096185923
246,220591,0.029999999329447746,-0.029999999329447746,-0.28999999165534973,0.0,-0.014180799946188927,0.0010908307740464807
246,221591,0.07999999821186066,0.0,-0.3100000023841858,0.0,0.015271631069481373,-0.0010908307740464807
246,222589,0.14000000059604645,-0.05000000074505806,-0.30000001192092896,0.0,0.006544984877109528,0.0
246,223590,0.11999999731779099,-0.05000000074505806,-0.2800000011920929,0.0021816615480929613,0.0021816615480929613,0.0010908307740464807
246,224589,0.15000000596046448,-0.009999999776482582,-0.2800000011920929,0.0010908307740464807,0.0021816615480929613,0.0
246,225589,0.10999999940395355,-0.019999999552965164,-0.28999999165534973,0.0010908307740464807,0.0054541537538170815,0.0
246,226594,0.14000000059604645,-0.05000000074505806,-0.27000001072883606,0.0,-0.004363323096185923,-0.0010908307740464807
246,227598,0.11999999731779099,0.0,-0.2800000011920929,0.0010908307740464807,0.0021816615480929613,-0.0010908307740464807
246,228608,0.11999999731779099,-0.07000000029802322,-0.28999999165534973,0.0010908307740464807,0.0010908307740464807,0.003272492438554764
246,229608,0.14000000059604645,-0.029999999329447746,-0.3100000023841858,0.0,-0.0021816615480929613,0.0010908307740464807
246,230615,0.17000000178813934,0.07000000029802322,-0.28999999165534973,0.0010908307740464807,0.0010908307740464807,-0.004363323096185923
246,231613,0.15000000596046448,-0.10999999940395355,-0.3100000023841858,-0.0010908307740464807,0.009817477315664291,-0.004363323096185923
246,232607,0.10999999940395355,-0.009999999776482582,-0.28999999165534973,0.0,-0.003272492438554764,-0.003272492438554764
246,233602,0.07999999821186066,-0.05000000074505806,-0.2800000011920929,0.0,0.004363323096185923,-0.0010908307740464807
246,234599,0.03999999910593033,-0.019999999552965164,-0.3100000023841858,-0.0021816615480929613,-0.006544984877109528,-0.0010908307740464807
246,235596,0.05999999865889549,0.0,-0.3100000023841858,0.0010908307740464807,-0.0054541537538170815,-0.0010908307740464807
246,236603,0.11999999731779099,-0.07000000029802322,-0.28999999165534973,0.0021816615480929613,-0.0010908307740464807,0.0
246,237600,0.07999999821186066,-0.009999999776482582,-0.2800000011920929,0.0,0.004363323096185923,0.0
246,238598,0.09000000357627869,-0.03999999910593033,-0.3100000023841858,0.0010908307740464807,-0.003272492438554764,-0.0010908307740464807
246,239600,-0.019999999552965164,-0.029999999329447746,-0.27000001072883606,0.0010908307740464807,0.008726646192371845,-0.0054541537538170815
246,240613,0.07999999821186066,0.019999999552965164,-0.30000001192092896,0.0021816615480929613,0.0,-0.0021816615480929613
246,241616,0.12999999523162842,-0.019999999552965164,-0.3100000023841858,0.0,0.0021816615480929613,0.0010908307740464807
246,242625,0.07000000029802322,-0.05999999865889549,-0.3100000023841858,0.0010908307740464807,-0.0054541537538170815,0.0010908307740464807
246,244583,0.14000000059604645,-0.07000000029802322,-0.28999999165534973,0.0010908307740464807,0.009817477315664291,-0.0010908307740464807
246,245592,0.10999999940395355,0.03999999910593033,-0.27000001072883606,0.0,0.0,-0.0010908307740464807
246,246599,0.05999999865889549,0.0,-0.2800000011920929,0.0021816615480929613,0.008726646192371845,-0.003272492438554764
246,247609,0.09000000357627869,0.019999999552965164,-0.2800000011920929,-0.0010908307740464807,0.0010908307740464807,0.0
246,248620,0.05000000074505806,0.0,-0.2800000011920929,-0.0010908307740464807,-0.0021816615480929613,0.003272492438554764
246,249635,-0.07999999821186066,-0.10999999940395355,-0.3499999940395355,0.0010908307740464807,-0.003272492438554764,-0.004363323096185923
246,251624,0.07999999821186066,-0.05000000074505806,-0.28999999165534973,-0.0021816615480929613,-0.0010908307740464807,0.0
246,252630,0.029999999329447746,-0.10000000149011612,-0.2800000011920929,-0.0010908307740464807,0.0010908307740464807,-0.0021816615480929613
246,253628,0.07999999821186066,0.0,-0.3100000023841858,0.003272492438554764,-0.004363323096185923,0.0
246,254629,0.18000000715255737,0.10999999940395355,-0.3199999928474426,0.0,0.0010908307740464807,0.0
246,255631,0.20000000298023224,0.18000000715255737,-0.2800000011920929,0.009817477315664291,0.0010908307740464807,0.0
246,256627,0.10000000149011612,-0.18000000715255737,-0.30000001192092896,-0.0021816615480929613,-0.0021816615480929613,0.004363323096185923
246,258575,-0.03999999910593033,-0.03999999910593033,-0.27000001072883606,0.0010908307740464807,-0.004363323096185923,0.003272492438554764
246,259568,0.0,-0.019999999552965164,-0.27000001072883606,0.0,-0.0054541537538170815,0.0021816615480929613
246,260556,0.0,-0.11999999731779099,-0.27000001072883606,0.0021816615480929613,0.0054541537538170815,-0.0010908307740464807
246,261550,0.0,0.05999999865889549,-0.30000001192092896,0.0010908307740464807,-0.004363323096185923,0.0
246,262549,-0.029999999329447746,0.03999999910593033,-0.2800000011920929,0.0010908307740464807,0.008726646192371845,-0.0010908307740464807
246,263549,-0.09000000357627869,0.029999999329447746,-0.3199999928474426,-0.0010908307740464807,-0.0010908307740464807,0.0010908307740464807
246,264549,0.019999999552965164,-0.019999999552965164,-0.2800000011920929,-0.0010908307740464807,-0.0010908307740464807,0.0021816615480929613
246,265549,0.009999999776482582,0.009999999776482582,-0.3100000023841858,0.0010908307740464807,0.0,-0.0021816615480929613
246,266436,0.019999999552965164,-0.009999999776482582,-0.28999999165534973,0.0,-0.0021816615480929613,0.0021816615480929613
246,267559,0.0,-0.07999999821186066,-0.3100000023841858,0.0,0.0,-0.0010908307740464807
246,268559,0.029999999329447746,-0.029999999329447746,-0.28999999165534973,0.0010908307740464807,-0.0054541537538170815,0.0010908307740464807
246,269564,0.03999999910593033,0.0,-0.2800000011920929,-0.0010908307740464807,-0.0021816615480929613,0.0010908307740464807
246,270544,0.05999999865889549,-0.05000000074505806,-0.3100000023841858,0.0,0.0021816615480929613,0.0
246,271575,0.029999999329447746,-0.019999999552965164,-0.28999999165534973,-0.0021816615480929613,-0.0010908307740464807,0.0010908307740464807
246,272584,0.029999999329447746,-0.009999999776482582,-0.28999999165534973,0.0021816615480929613,0.0,0.0
246,273590,0.029999999329447746,-0.03999999910593033,-0.30000001192092896,0.0,-0.0010908307740464807,-0.0010908307740464807
246,274595,0.019999999552965164,-0.029999999329447746,-0.3199999928474426,0.0010908307740464807,-0.011999138630926609,0.0
246,275604,0.07999999821186066,-0.03999999910593033,-0.30000001192092896,0.0,0.007635815534740686,-0.0010908307740464807
246,276611,0.0,-0.3100000023841858,-0.28999999165534973,0.0021816615480929613,0.0,0.0010908307740464807
246,277611,0.07999999821186066,0.09000000357627869,-0.30000001192092896,0.0010908307740464807,-0.0021816615480929613,0.0010908307740464807
246,278614,0.03999999910593033,-0.009999999776482582,-0.27000001072883606,-0.004363323096185923,0.003272492438554764,0.004363323096185923
246,279615,-0.019999999552965164,-0.05000000074505806,-0.3100000023841858,0.0010908307740464807,-0.003272492438554764,0.0010908307740464807
246,280615,-0.15000000596046448,-0.10999999940395355,-0.2800000011920929,-0.006544984877109528,0.0010908307740464807,0.0054541537538170815
246,281612,-0.05000000074505806,0.03999999910593033,-0.30000001192092896,-0.0010908307740464807,0.0021816615480929613,-0.0010908307740464807
246,282612,0.009999999776482582,-0.05999999865889549,-0.28999999165534973,0.0,0.0010908307740464807,0.0010908307740464807
246,283611,0.07000000029802322,0.009999999776482582,-0.30000001192092896,0.0,0.014180799946188927,-0.004363323096185923
246,284606,0.07999999821186066,-0.029999999329447746,-0.28999999165534973,0.0,0.003272492438554764,0.0
246,285606,0.10999999940395355,-0.09000000357627869,-0.3100000023841858,-0.0021816615480929613,-0.0010908307740464807,0.0
246,286599,0.07999999821186066,-0.05000000074505806,-0.2800000011920929,-0.0010908307740464807,-0.003272492438554764,0.0021816615480929613
246,287595,0.10000000149011612,-0.009999999776482582,-0.2800000011920929,0.0,0.004363323096185923,-0.0010908307740464807
246,288602,0.14000000059604645,-0.009999999776482582,-0.30000001192092896,0.0010908307740464807,-0.007635815534740686,-0.0010908307740464807
246,289611,0.10999999940395355,-0.05000000074505806,-0.2800000011920929,-0.0010908307740464807,-0.004363323096185923,0.0010908307740464807
246,290611,0.09000000357627869,-0.05999999865889549,-0.30000001192092896,0.0021816615480929613,-0.0021816615480929613,0.0
246,291610,0.07000000029802322,-0.029999999329447746,-0.33000001311302185,0.0021816615480929613,-0.004363323096185923,0.0021816615480929613
246,293558,0.03999999910593033,-0.029999999329447746,-0.30000001192092896,0.0,-0.003272492438554764,0.0021816615480929613
246,294564,0.09000000357627869,-0.029999999329447746,-0.3199999928474426,0.0021816615480929613,0.004363323096185923,-0.003272492438554764
246,295574,0.0,-0.029999999329447746,-0.28999999165534973,0.0,0.0,0.0010908307740464807
246,296574,0.03999999910593033,0.019999999552965164,-0.3100000023841858,0.0,0.0,0.0010908307740464807
246,297570,0.029999999329447746,-0.05000000074505806,-0.2800000011920929,0.0010908307740464807,0.003272492438554764,0.0
246,298565,0.0,-0.03999999910593033,-0.33000001311302185,-0.0010908307740464807,0.0010908307740464807,0.0
246,299562,0.029999999329447746,0.0,-0.28999999165534973,0.0,0.003272492438554764,-0.0010908307740464807
246,300565,-0.03999999910593033,-0.03999999910593033,-0.28999999165534973,0.0,0.0010908307740464807,0.0
246,301572,-0.029999999329447746,-0.029999999329447746,-0.33000001311302185,0.0010908307740464807,-0.004363323096185923,0.0010908307740464807
246,302575,-0.05000000074505806,-0.05000000074505806,-0.2800000011920929,-0.0010908307740464807,-0.0010908307740464807,-0.0010908307740464807
246,303585,-0.019999999552965164,-0.05999999865889549,-0.28999999165534973,-0.0010908307740464807,-0.0010908307740464807,0.0010908307740464807
246,304586,0.009999999776482582,0.0,-0.27000001072883606,0.0010908307740464807,0.013089969754219055,-0.0010908307740464807
246,305586,0.0,-0.05000000074505806,-0.30000001192092896,0.0,0.0010908307740464807,-0.0010908307740464807
246,306589,-0.009999999776482582,-0.05999999865889549,-0.27000001072883606,0.0,-0.0021816615480929613,0.0021816615480929613
246,307591,0.0,-0.029999999329447746,-0.2800000011920929,0.0010908307740464807,0.0,0.0
246,308591,0.019999999552965164,-0.019999999552965164,-0.28999999165534973,-0.0010908307740464807,0.007635815534740686,-0.0010908307740464807
246,309593,0.029999999329447746,-0.07999999821186066,-0.3100000023841858,0.0010908307740464807,-0.007635815534740686,0.0
246,310600,0.029999999329447746,-0.05000000074505806,-0.30000001192092896,0.0,0.0021816615480929613,0.0010908307740464807
246,311605,0.05000000074505806,-0.029999999329447746,-0.30000001192092896,-0.0021816615480929613,-0.0021816615480929613,0.0021816615480929613
246,312615,0.029999999329447746,-0.09000000357627869,-0.28999999165534973,0.0,0.0021816615480929613,-0.0010908307740464807
246,313612,0.029999999329447746,-0.05000000074505806,-0.2800000011920929,0.0,0.0054541537538170815,0.0
246,314613,0.0,-0.03999999910593033,-0.28999999165534973,0.004363323096185923,0.004363323096185923,-0.0021816615480929613
246,315617,0.14000000059604645,-0.36000001430511475,-0.20000000298023224,0.0021816615480929613,0.006544984877109528,-0.0021816615480929613
246,317580,-0.03999999910593033,-0.14000000059604645,-0.25,0.0,-0.0010908307740464807,0.0010908307740464807
246,318589,0.029999999329447746,-0.2199999988079071,-0.25,-0.0010908307740464807,-0.0010908307740464807,-0.0010908307740464807
246,319597,-0.07000000029802322,0.12999999523162842,-0.3199999928474426,-0.0010908307740464807,-0.003272492438554764,0.003272492438554764
246,320630,-0.12999999523162842,0.03999999910593033,-0.3199999928474426,0.0,0.0,0.0010908307740464807
246,321661,0.2800000011920929,0.03999999910593033,-0.3199999928474426,-0.0010908307740464807,-0.0010908307740464807,0.0010908307740464807
246,323581,0.07000000029802322,0.05000000074505806,-0.33000001311302185,0.0021816615480929613,-0.007635815534740686,0.0054541537538170815
246,324601,-0.18000000715255737,0.0,-0.23999999463558197,-0.0010908307740464807,0.0,-0.004363323096185923
246,325613,0.6000000238418579,0.1599999964237213,-0.3100000023841858,0.0,0.011999138630926609,-0.006544984877109528
246,326626,0.0,-0.23000000417232513,-0.25999999046325684,0.0010908307740464807,0.004363323096185923,0.0010908307740464807
246,327632,-0.5,-0.009999999776482582,-0.3799999952316284,0.0010908307740464807,-0.0054541537538170815,-0.0021816615480929613
246,329606,-0.10000000149011612,0.11999999731779099,-0.30000001192092896,-0.0054541537538170815,0.006544984877109528,0.0021816615480929613
246,330611,-0.3199999928474426,0.18000000715255737,-0.4300000071525574,0.004363323096185923,0.0010908307740464807,0.0
246,331622,-0.18000000715255737,-0.11999999731779099,-0.25,-0.0021816615480929613,0.009817477315664291,0.013089969754219055
246,332624,-0.3100000023841858,-0.10000000149011612,-0.4099999964237213,0.0,-0.0021816615480929613,0.0010908307740464807
246,334580,0.30000001192092896,-0.20999999344348907,-0.27000001072883606,0.0,-0.0021816615480929613,-0.003272492438554764
246,335579,0.029999999329447746,0.0,-0.3499999940395355,0.0010908307740464807,-0.0010908307740464807,-0.0021816615480929613
246,336588,0.019999999552965164,0.17000000178813934,-0.15000000596046448,0.0010908307740464807,-0.006544984877109528,-0.003272492438554764
246,337597,0.029999999329447746,0.27000001072883606,-0.18000000715255737,0.003272492438554764,-0.007635815534740686,0.0
246,338623,-0.05999999865889549,-0.2199999988079071,-0.20000000298023224,-0.0010908307740464807,0.007635815534740686,-0.009817477315664291
246,339647,0.4699999988079071,0.699999988079071,-0.5899999737739563,0.003272492438554764,0.007635815534740686,-0.004363323096185923
246,341621,0.44999998807907104,0.019999999552965164,0.2199999988079071,-0.004363323096185923,0.004363323096185923,0.004363323096185923
246,343590,-0.029999999329447746,-0.15000000596046448,-0.3100000023841858,0.0,-0.009817477315664291,0.0010908307740464807
246,344604,0.10000000149011612,-0.17000000178813934,-0.2800000011920929,0.0021816615480929613,-0.010908307507634163,0.0
246,345613,0.10999999940395355,-0.009999999776482582,-0.3199999928474426,0.0,0.0021816615480929613,0.0010908307740464807
246,346619,0.05999999865889549,-0.05000000074505806,-0.3100000023841858,-0.0010908307740464807,0.0021816615480929613,-0.0010908307740464807
246,347634,0.05999999865889549,-0.03999999910593033,-0.2800000011920929,0.0,-0.0010908307740464807,0.0021816615480929613
246,348651,0.029999999329447746,-0.05000000074505806,-0.30000001192092896,0.0021816615480929613,-0.0021816615480929613,0.0010908307740464807
246,350624,0.0,-0.05000000074505806,-0.2800000011920929,0.0,-0.006544984877109528,0.0010908307740464807
246,352591,0.05000000074505806,-0.009999999776482582,-0.33000001311302185,0.0054541537538170815,-0.004363323096185923,0.0010908307740464807
246,353598,0.05000000074505806,-0.05999999865889549,-0.30000001192092896,-0.0010908307740464807,0.0054541537538170815,0.0
246,354600,0.0,-0.05999999865889549,-0.30000001192092896,-0.003272492438554764,-0.007635815534740686,0.0010908307740464807
246,355604,0.009999999776482582,-0.05000000074505806,-0.30000001192092896,-0.0021816615480929613,-0.0010908307740464807,-0.0010908307740464807
246,356605,0.07999999821186066,-0.09000000357627869,-0.30000001192092896,-0.0021816615480929613,0.0,-0.0021816615480929613
246,357608,0.05999999865889549,-0.05999999865889549,-0.28999999165534973,-0.003272492438554764,0.0,-0.0010908307740464807
246,358607,0.019999999552965164,-0.07999999821186066,-0.28999999165534973,0.0010908307740464807,-0.0010908307740464807,0.0010908307740464807
246,359607,0.05999999865889549,-0.05000000074505806,-0.28999999165534973,0.0,-0.006544984877109528,0.0010908307740464807
246,360604,-0.009999999776482582,-0.019999999552965164,-0.27000001072883606,0.0,-0.003272492438554764,0.0010908307740464807
246,361606,0.019999999552965164,0.0,-0.2800000011920929,0.0010908307740464807,0.004363323096185923,-0.0010908307740464807
246,362616,0.0,0.0,-0.2800000011920929,-0.0010908307740464807,-0.004363323096185923,0.0
246,363617,0.07999999821186066,-0.03999999910593033,-0.27000001072883606,0.0010908307740464807,0.003272492438554764,-0.0010908307740464807
246,364621,0.05000000074505806,-0.05000000074505806,-0.3100000023841858,0.0010908307740464807,0.0,-0.0010908307740464807
246,365625,0.029999999329447746,-0.019999999552965164,-0.27000001072883606,0.0,-0.0054541537538170815,0.0054541537538170815
246,367579,0.05999999865889549,-0.019999999552965164,-0.28999999165534973,-0.0010908307740464807,0.0010908307740464807,0.0
246,368579,0.07999999821186066,-0.10000000149011612,-0.27000001072883606,0.0010908307740464807,0.0054541537538170815,-0.003272492438554764
246,369586,0.07999999821186066,0.029999999329447746,-0.2800000011920929,-0.0010908307740464807,-0.0054541537538170815,-0.0010908307740464807
246,370599,0.07000000029802322,-0.009999999776482582,-0.3100000023841858,0.0021816615480929613,-0.0021816615480929613,-0.0010908307740464807
246,371609,0.029999999329447746,-0.07000000029802322,-0.30000001192092896,0.0,0.0,-0.0021816615480929613
246,372621,0.05999999865889549,-0.05000000074505806,-0.3100000023841858,0.0,0.0010908307740464807,0.0010908307740464807
246,373625,0.10000000149011612,-0.07999999821186066,-0.28999999165534973,0.0021816615480929613,-0.003272492438554764,0.0
246,374628,0.05999999865889549,-0.029999999329447746,-0.2800000011920929,-0.0010908307740464807,0.006544984877109528,0.0010908307740464807
246,375632,0.10000000149011612,-0.03999999910593033,-0.2800000011920929,0.0010908307740464807,-0.0021816615480929613,-0.0021816615480929613
246,377596,0.07999999821186066,-0.07000000029802322,-0.28999999165534973,0.0,0.0,-0.0010908307740464807
246,378596,0.10999999940395355,-0.07000000029802322,-0.2800000011920929,0.0010908307740464807,0.007635815534740686,-0.0021816615480929613
246,379606,0.07999999821186066,-0.019999999552965164,-0.28999999165534973,0.0010908307740464807,-0.004363323096185923,0.0
246,380615,0.07000000029802322,-0.019999999552965164,-0.28999999165534973,0.0010908307740464807,-0.004363323096185923,0.0010908307740464807
246,381626,0.07999999821186066,-0.09000000357627869,-0.30000001192092896,0.0,0.004363323096185923,0.0
246,382633,0.12999999523162842,-0.019999999552965164,-0.30000001192092896,0.0021816615480929613,0.009817477315664291,-0.0021816615480929613
246,383642,0.0,-0.10000000149011612,-0.2800000011920929,0.0010908307740464807,-0.0021816615480929613,-0.0010908307740464807
246,384657,-0.07999999821186066,-0.029999999329447746,-0.25999999046325684,-0.0010908307740464807,0.0054541537538170815,-0.003272492438554764
246,386640,0.019999999552965164,-0.05000000074505806,-0.27000001072883606,0.0,0.0,-0.0010908307740464807
246,388606,0.0,-0.10000000149011612,-0.30000001192092896,-0.0010908307740464807,0.0054541537538170815,0.0021816615480929613
246,389619,-0.09000000357627869,-0.05999999865889549,-0.28999999165534973,0.0,0.0054541537538170815,-0.003272492438554764
246,390626,-0.07999999821186066,-0.07999999821186066,-0.2800000011920929,-0.0010908307740464807,-0.010908307507634163,0.0021816615480929613
246,391389,-0.019999999552965164,-0.05000000074505806,-0.27000001072883606,-0.0010908307740464807,0.0021816615480929613,-0.0010908307740464807
246,392631,-0.09000000357627869,-0.03999999910593033,-0.28999999165534973,0.0010908307740464807,-0.0010908307740464807,0.0010908307740464807
246,393635,-0.05999999865889549,-0.05999999865889549,-0.2800000011920929,-0.003272492438554764,0.0021816615480929613,0.0
246,394642,-0.05999999865889549,-0.05000000074505806,-0.3100000023841858,0.0,0.007635815534740686,0.0
246,395649,-0.09000000357627869,-0.09000000357627869,-0.27000001072883606,0.0010908307740464807,0.0,0.0010908307740464807
246,397630,-0.03999999910593033,-0.009999999776482582,-0.28999999165534973,-0.0021816615480929613,0.004363323096185923,0.0
246,398634,-0.10000000149011612,-0.10000000149011612,-0.28999999165534973,-0.0010908307740464807,-0.0054541537538170815,0.0010908307740464807
246,399636,-0.05999999865889549,-0.05000000074505806,-0.2800000011920929,0.0010908307740464807,0.004363323096185923,0.0010908307740464807
246,401593,-0.03999999910593033,-0.019999999552965164,-0.28999999165534973,0.0,0.0021816615480929613,-0.0010908307740464807
246,402600,-0.029999999329447746,-0.009999999776482582,-0.2800000011920929,-0.0010908307740464807,0.0021816615480929613,-0.003272492438554764
246,403602,-0.09000000357627869,0.0,-0.28999999165534973,-0.0010908307740464807,-0.0021816615480929613,0.0010908307740464807
246,404603,-0.07000000029802322,-0.029999999329447746,-0.28999999165534973,0.0,0.0021816615480929613,0.0021816615480929613
246,405609,-0.10999999940395355,-0.03999999910593033,-0.3100000023841858,-0.0010908307740464807,0.011999138630926609,-0.0054541537538170815
246,406615,0.009999999776482582,-0.07000000029802322,-0.30000001192092896,0.0,0.0021816615480929613,-0.0021816615480929613
246,407620,0.0,0.009999999776482582,-0.28999999165534973,-0.0010908307740464807,0.0,0.0
246,408620,-0.029999999329447746,-0.019999999552965164,-0.28999999165534973,0.0,-0.013089969754219055,0.0021816615480929613
246,409623,-0.019999999552965164,-0.029999999329447746,-0.3100000023841858,-0.0010908307740464807,-0.006544984877109528,0.0010908307740464807
246,410636,-0.07000000029802322,-0.009999999776482582,-0.3100000023841858,-0.0010908307740464807,-0.0054541537538170815,-0.0021816615480929613
246,411649,-0.009999999776482582,-0.03999999910593033,-0.3100000023841858,0.0021816615480929613,0.003272492438554764,0.0
246,413615,-0.03999999910593033,0.0,-0.2800000011920929,0.0010908307740464807,0.0,0.0
246,414626,-0.009999999776482582,-0.019999999552965164,-0.3100000023841858,-0.0021816615480929613,0.0,-0.0010908307740464807
246,415633,0.0,0.009999999776482582,-0.3100000023841858,0.0010908307740464807,0.0010908307740464807,-0.0021816615480929613
246,417597,-0.03999999910593033,-0.07000000029802322,-0.2800000011920929,-0.0010908307740464807,0.0054541537538170815,-0.003272492438554764
246,418605,0.0,-0.05000000074505806,-0.30000001192092896,0.0010908307740464807,0.0021816615480929613,-0.0010908307740464807
246,419614,-0.009999999776482582,-0.20000000298023224,-0.27000001072883606,0.0010908307740464807,0.008726646192371845,-0.0010908307740464807
246,420623,-0.14000000059604645,-0.019999999552965164,-0.30000001192092896,0.0021816615480929613,0.006544984877109528,0.003272492438554764
246,421636,0.0,-0.03999999910593033,-0.2800000011920929,-0.0010908307740464807,0.0,0.0
246,422646,-0.029999999329447746,0.0,-0.30000001192092896,-0.0010908307740464807,0.0,0.0
246,424622,-0.029999999329447746,-0.05999999865889549,-0.30000001192092896,0.0010908307740464807,-0.003272492438554764,-0.0010908307740464807
246,425631,-0.03999999910593033,0.0,-0.2800000011920929,0.0,-0.0054541537538170815,0.0021816615480929613
246,426638,0.0,0.0,-0.28999999165534973,0.0,0.0,0.0
246,427640,0.019999999552965164,0.009999999776482582,-0.3199999928474426,0.0010908307740464807,0.008726646192371845,-0.0010908307740464807
246,428647,0.009999999776482582,-0.019999999552965164,-0.28999999165534973,0.0010908307740464807,0.003272492438554764,0.0021816615480929613
246,429655,-0.05000000074505806,-0.05999999865889549,-0.28999999165534973,0.0021816615480929613,-0.0010908307740464807,0.0010908307740464807
246,431624,-0.019999999552965164,-0.009999999776482582,-0.3100000023841858,0.0,0.0010908307740464807,-0.0010908307740464807
246,432630,0.009999999776482582,-0.07999999821186066,-0.3100000023841858,0.0,-0.013089969754219055,0.0
246,433635,-0.029999999329447746,-0.019999999552965164,-0.3100000023841858,-0.0010908307740464807,0.0021816615480929613,0.0010908307740464807
246,435591,-0.07000000029802322,-0.05000000074505806,-0.28999999165534973,-0.0010908307740464807,0.0010908307740464807,0.003272492438554764
246,436599,-0.07999999821186066,-0.009999999776482582,-0.30000001192092896,0.0010908307740464807,0.0021816615480929613,-0.0021816615480929613
246,437606,-0.05999999865889549,-0.009999999776482582,-0.30000001192092896,0.0,0.0010908307740464807,-0.003272492438554764
246,438611,-0.03999999910593033,0.0,-0.3199999928474426,0.0,-0.004363323096185923,0.0010908307740464807
246,439620,-0.05999999865889549,-0.05000000074505806,-0.3199999928474426,0.0021816615480929613,0.008726646192371845,-0.003272492438554764
246,441582,-0.10999999940395355,0.10000000149011612,-0.30000001192092896,0.0,-0.003272492438554764,-0.0010908307740464807
246,442579,-0.10999999940395355,0.0,-0.28999999165534973,-0.0010908307740464807,0.0010908307740464807,0.0010908307740464807
246,443583,-0.18000000715255737,-0.009999999776482582,-0.28999999165534973,0.0,-0.009817477315664291,0.003272492438554764
246,444589,-0.10000000149011612,0.009999999776482582,-0.3100000023841858,-0.0010908307740464807,-0.003272492438554764,0.0021816615480929613
246,445590,-0.07999999821186066,0.05999999865889549,-0.30000001192092896,-0.0010908307740464807,-0.0010908307740464807,-0.0010908307740464807
246,446594,-0.07000000029802322,-0.03999999910593033,-0.30000001192092896,-0.0021816615480929613,-0.004363323096185923,0.0021816615480929613
246,447595,-0.05000000074505806,-0.019999999552965164,-0.30000001192092896,0.0,0.007635815534740686,-0.0021816615480929613
246,448601,-0.07000000029802322,0.0,-0.2800000011920929,0.0010908307740464807,-0.0010908307740464807,0.0
246,449599,-0.07999999821186066,-0.05000000074505806,-0.3100000023841858,-0.0010908307740464807,0.0021816615480929613,0.0010908307740464807
246,450598,-0.10000000149011612,-0.029999999329447746,-0.28999999165534973,-0.0010908307740464807,0.0010908307740464807,-0.0010908307740464807
246,451598,-0.09000000357627869,-0.10000000149011612,-0.25999999046325684,0.0021816615480929613,-0.003272492438554764,-0.0021816615480929613
246,452599,0.0,0.07000000029802322,-0.30000001192092896,0.0021816615480929613,0.003272492438554764,0.0
246,453597,-0.05000000074505806,-0.019999999552965164,-0.3100000023841858,-0.0010908307740464807,0.004363323096185923,-0.0021816615480929613
246,454600,-0.10000000149011612,-0.05999999865889549,-0.27000001072883606,0.0021816615480929613,0.0,0.0021816615480929613
246,455599,-0.07999999821186066,-0.019999999552965164,-0.30000001192092896,-0.0010908307740464807,-0.004363323096185923,0.0
246,456598,-0.07999999821186066,-0.019999999552965164,-0.30000001192092896,-0.0010908307740464807,0.0021816615480929613,-0.0010908307740464807
246,457598,-0.09000000357627869,-0.03999999910593033,-0.30000001192092896,0.0010908307740464807,0.004363323096185923,0.0
246,458599,-0.09000000357627869,0.0,-0.30000001192092896,0.0,0.0,0.0010908307740464807
246,459605,-0.09000000357627869,-0.03999999910593033,-0.3199999928474426,-0.0010908307740464807,0.0,-0.0021816615480929613
246,460610,-0.09000000357627869,0.0,-0.28999999165534973,0.0010908307740464807,0.0010908307740464807,0.0
246,461616,-0.07999999821186066,-0.009999999776482582,-0.30000001192092896,-0.0021816615480929613,-0.0021816615480929613,-0.0010908307740464807
246,462620,-0.029999999329447746,0.0,-0.3100000023841858,-0.0010908307740464807,-0.0021816615480929613,0.0021816615480929613
246,463629,-0.07000000029802322,0.0,-0.30000001192092896,-0.0021816615480929613,0.003272492438554764,0.0
246,465599,-0.009999999776482582,-0.019999999552965164,-0.3400000035762787,0.0021816615480929613,-0.0010908307740464807,0.0010908307740464807
246,466604,-0.03999999910593033,0.0,-0.30000001192092896,0.0021816615480929613,-0.0010908307740464807,0.0
246,467608,-0.10999999940395355,-0.019999999552965164,-0.3499999940395355,-0.0010908307740464807,-0.004363323096185923,0.0
246,468613,-0.03999999910593033,-0.03999999910593033,-0.28999999165534973,-0.0010908307740464807,0.003272492438554764,0.0021816615480929613
246,469622,-0.07000000029802322,-0.09000000357627869,-0.3100000023841858,0.0,-0.0010908307740464807,0.0021816615480929613
246,470631,-0.07999999821186066,0.0,-0.3100000023841858,0.0,0.006544984877109528,-0.0021816615480929613
246,471638,-0.029999999329447746,0.009999999776482582,-0.30000001192092896,0.0,0.0021816615480929613,-0.0010908307740464807
246,472647,-0.029999999329447746,-0.05000000074505806,-0.27000001072883606,0.0,0.0021816615480929613,0.0010908307740464807
246,473657,-0.03999999910593033,-0.019999999552965164,-0.28999999165534973,0.0,-0.006544984877109528,0.0010908307740464807
246,475617,0.0,0.019999999552965164,-0.3499999940395355,0.0010908307740464807,0.006544984877109528,-0.0021816615480929613
246,476621,-0.03999999910593033,-0.029999999329447746,-0.3100000023841858,-0.0010908307740464807,0.0021816615480929613,-0.0021816615480929613
246,477619,-0.009999999776482582,0.0,-0.3100000023841858,0.0010908307740464807,0.0054541537538170815,-0.0010908307740464807
246,478623,-0.009999999776482582,0.0,-0.3199999928474426,-0.003272492438554764,-0.0054541537538170815,0.0
246,479623,-0.019999999552965164,-0.009999999776482582,-0.30000001192092896,0.0010908307740464807,-0.008726646192371845,0.0010908307740464807
246,480632,-0.03999999910593033,-0.009999999776482582,-0.27000001072883606,0.0010908307740464807,-0.003272492438554764,0.0
246,481638,-0.07000000029802322,-0.019999999552965164,-0.3100000023841858,0.0021816615480929613,0.0021816615480929613,-0.003272492438554764
246,482646,0.0,-0.03999999910593033,-0.30000001192092896,0.0,-0.004363323096185923,0.0
246,483652,-0.009999999776482582,-0.10000000149011612,-0.28999999165534973,-0.0010908307740464807,0.003272492438554764,-0.0010908307740464807
246,485607,-0.03999999910593033,-0.05999999865889549,-0.30000001192092896,-0.0021816615480929613,-0.0021816615480929613,0.0010908307740464807
246,486621,-0.019999999552965164,-0.029999999329447746,-0.2800000011920929,-0.0010908307740464807,-0.003272492438554764,0.0010908307740464807
246,487627,-0.10999999940395355,0.10999999940395355,-0.3100000023841858,0.0021816615480929613,0.003272492438554764,-0.0010908307740464807
246,488640,0.0,-0.029999999329447746,-0.3199999928474426,-0.0021816615480929613,-0.0054541537538170815,0.0
246,489651,0.0,-0.009999999776482582,-0.30000001192092896,-0.003272492438554764,0.0021816615480929613,-0.0021816615480929613
246,491631,-0.03999999910593033,-0.019999999552965164,-0.2800000011920929,0.0021816615480929613,0.007635815534740686,-0.0010908307740464807
246,492643,-0.029999999329447746,-0.009999999776482582,-0.30000001192092896,-0.0010908307740464807,0.006544984877109528,-0.0021816615480929613
246,493650,-0.019999999552965164,-0.07999999821186066,-0.25999999046325684,0.0,-0.003272492438554764,0.0010908307740464807
246,495616,-0.03999999910593033,-0.03999999910593033,-0.3100000023841858,0.0,-0.003272492438554764,0.0
246,496625,-0.05000000074505806,-0.03999999910593033,-0.28999999165534973,0.0021816615480929613,-0.013089969754219055,0.0
246,497632,-0.05999999865889549,-0.029999999329447746,-0.2800000011920929,-0.0021816615480929613,-0.007635815534740686,0.003272492438554764
246,498635,-0.09000000357627869,-0.019999999552965164,-0.3199999928474426,-0.0010908307740464807,0.0021816615480929613,-0.0010908307740464807
246,499642,-0.10999999940395355,-0.03999999910593033,-0.28999999165534973,0.0,-0.006544984877109528,0.003272492438554764
246,500650,-0.07999999821186066,0.0,-0.30000001192092896,-0.0010908307740464807,0.004363323096185923,-0.0021816615480929613
246,501655,-0.03999999910593033,-0.03999999910593033,-0.3100000023841858,0.0010908307740464807,-0.006544984877109528,0.0
246,503619,-0.07000000029802322,-0.05000000074505806,-0.30000001192092896,0.0010908307740464807,-0.006544984877109528,0.0010908307740464807
246,504621,-0.07999999821186066,-0.029999999329447746,-0.3100000023841858,0.0010908307740464807,0.007635815534740686,-0.0021816615480929613
246,505631,-0.09000000357627869,-0.03999999910593033,-0.3100000023841858,0.0021816615480929613,0.0021816615480929613,0.0
246,506644,-0.09000000357627869,-0.05000000074505806,-0.30000001192092896,-0.0010908307740464807,0.0054541537538170815,0.0
246,507659,-0.10999999940395355,-0.009999999776482582,-0.30000001192092896,-0.0010908307740464807,0.0010908307740464807,0.0
246,509635,-0.10999999940395355,-0.07999999821186066,-0.3199999928474426,0.0021816615480929613,0.010908307507634163,-0.003272492438554764
246,510646,-0.14000000059604645,-0.009999999776482582,-0.3100000023841858,-0.0021816615480929613,0.0021816615480929613,-0.0021816615480929613
246,511660,-0.09000000357627869,-0.05000000074505806,-0.3100000023841858,-0.0010908307740464807,-0.009817477315664291,0.0021816615480929613
246,513630,-0.03999999910593033,-0.029999999329447746,-0.3100000023841858,0.0,0.003272492438554764,0.0
246,515622,-0.10999999940395355,0.0,-0.3199999928474426,0.003272492438554764,-0.006544984877109528,0.0010908307740464807
246,516646,-0.07000000029802322,-0.019999999552965164,-0.30000001192092896,-0.003272492438554764,0.0021816615480929613,0.0010908307740464807
246,517656,-0.05000000074505806,0.019999999552965164,-0.2800000011920929,0.0,0.0021816615480929613,0.0
246,519632,-0.05999999865889549,-0.05000000074505806,-0.28999999165534973,-0.0021816615480929613,-0.0054541537538170815,0.0
246,520648,-0.05999999865889549,-0.019999999552965164,-0.30000001192092896,-0.0021816615480929613,0.0,0.0
246,521669,-0.07000000029802322,-0.05000000074505806,-0.28999999165534973,-0.0010908307740464807,-0.0021816615480929613,0.0
246,523646,-0.05000000074505806,-0.03999999910593033,-0.33000001311302185,-0.0010908307740464807,0.003272492438554764,0.0010908307740464807
246,524655,-0.09000000357627869,-0.05999999865889549,-0.28999999165534973,0.0,-0.0054541537538170815,0.0
246,525663,-0.09000000357627869,-0.12999999523162842,-0.28999999165534973,0.0010908307740464807,-0.0010908307740464807,0.0
246,526675,-0.09000000357627869,0.009999999776482582,-0.28999999165534973,0.0010908307740464807,0.003272492438554764,-0.0021816615480929613
246,528656,-0.019999999552965164,-0.23000000417232513,-0.25999999046325684,0.004363323096185923,0.019634954631328583,-0.0054541537538170815
246,530631,-0.07999999821186066,0.10999999940395355,-0.36000001430511475,0.0,-0.004363323096185923,-0.0010908307740464807
246,531654,-0.029999999329447746,-0.09000000357627869,-0.2800000011920929,0.0,-0.004363323096185923,0.0010908307740464807
246,533644,0.05999999865889549,-0.009999999776482582,-0.30000001192092896,0.0,0.006544984877109528,-0.0010908307740464807
246,535626,0.009999999776482582,-0.07000000029802322,-0.3100000023841858,0.0,0.004363323096185923,0.0010908307740464807
246,536650,0.019999999552965164,-0.05000000074505806,-0.28999999165534973,0.0010908307740464807,0.0021816615480929613,-0.0021816615480929613
246,538646,0.07000000029802322,-0.05000000074505806,-0.27000001072883606,0.0,-0.0021816615480929613,0.0
246,539670,0.05000000074505806,-0.029999999329447746,-0.30000001192092896,-0.0021816615480929613,0.0054541537538170815,-0.0021816615480929613
246,541440,0.03999999910593033,-0.029999999329447746,-0.28999999165534973,0.0,-0.0021816615480929613,0.0021816615480929613
246,542575,0.05000000074505806,-0.07000000029802322,-0.2800000011920929,0.0010908307740464807,0.003272492438554764,0.0
246,543595,0.07000000029802322,0.0,-0.30000001192092896,0.0010908307740464807,-0.004363323096185923,-0.0010908307740464807
246,544611,0.03999999910593033,-0.019999999552965164,-0.28999999165534973,0.0010908307740464807,0.0010908307740464807,-0.0010908307740464807
246,545633,0.07999999821186066,0.0,-0.3199999928474426,0.0021816615480929613,0.0021816615480929613,-0.0010908307740464807
246,546643,0.10999999940395355,0.019999999552965164,-0.28999999165534973,0.0010908307740464807,-0.0010908307740464807,0.0021816615480929613
246,547655,0.03999999910593033,-0.019999999552965164,-0.28999999165534973,0.0010908307740464807,-0.0054541537538170815,0.0010908307740464807
246,549645,0.07000000029802322,-0.019999999552965164,-0.2800000011920929,-0.0010908307740464807,-0.009817477315664291,0.0021816615480929613
246,551626,0.09000000357627869,-0.009999999776482582,-0.28999999165534973,-0.0010908307740464807,0.004363323096185923,-0.0010908307740464807
246,552640,0.15000000596046448,-0.05000000074505806,-0.30000001192092896,0.0010908307740464807,0.0,0.0
246,553654,0.07000000029802322,0.0,-0.2800000011920929,0.0010908307740464807,-0.0021816615480929613,0.0021816615480929613
246,555652,0.03999999910593033,0.0,-0.3100000023841858,0.0010908307740464807,-0.003272492438554764,-0.0010908307740464807
246,557633,0.05999999865889549,-0.009999999776482582,-0.30000001192092896,0.0021816615480929613,-0.011999138630926609,0.003272492438554764
246,558659,0.019999999552965164,-0.009999999776482582,-0.3100000023841858,0.0,0.009817477315664291,-0.0010908307740464807
246,559673,-0.03999999910593033,0.10000000149011612,-0.27000001072883606,0.0021816615480929613,0.0054541537538170815,-0.0010908307740464807
246,561553,0.019999999552965164,-0.019999999552965164,-0.28999999165534973,0.0010908307740464807,0.0010908307740464807,0.0
246,562573,0.009999999776482582,0.019999999552965164,-0.28999999165534973,0.0010908307740464807,-0.0010908307740464807,0.0
246,563590,0.03999999910593033,-0.03999999910593033,-0.3199999928474426,0.0,0.003272492438554764,-0.0021816615480929613
246,564613,0.11999999731779099,0.019999999552965164,-0.3100000023841858,-0.0010908307740464807,0.0,0.003272492438554764
246,565641,0.029999999329447746,-0.03999999910593033,-0.2800000011920929,-0.0021816615480929613,0.0010908307740464807,0.0
246,566659,0.03999999910593033,-0.019999999552965164,-0.30000001192092896,0.0,0.0010908307740464807,0.0021816615480929613
246,567680,0.05000000074505806,0.0,-0.30000001192092896,-0.0010908307740464807,0.007635815534740686,0.0
246,569462,0.10999999940395355,-0.019999999552965164,-0.3100000023841858,0.0010908307740464807,0.009817477315664291,0.0
246,570598,0.019999999552965164,-0.029999999329447746,-0.2800000011920929,0.0,-0.0054541537538170815,-0.0010908307740464807
246,571616,0.10000000149011612,-0.12999999523162842,-0.28999999165534973,-0.0010908307740464807,0.007635815534740686,-0.0021816615480929613
246,572627,0.009999999776482582,0.0,-0.30000001192092896,0.0010908307740464807,0.006544984877109528,0.0010908307740464807
246,573636,0.009999999776482582,0.0,-0.3100000023841858,0.003272492438554764,-0.0021816615480929613,-0.0010908307740464807
246,574656,0.029999999329447746,-0.019999999552965164,-0.33000001311302185,0.0,-0.0010908307740464807,-0.0010908307740464807
246,575666,0.09000000357627869,-0.029999999329447746,-0.28999999165534973,-0.0010908307740464807,0.003272492438554764,0.0
246,577644,0.07999999821186066,0.0,-0.3100000023841858,-0.0010908307740464807,0.0010908307740464807,-0.0021816615480929613
246,579624,0.11999999731779099,-0.03999999910593033,-0.2800000011920929,0.0010908307740464807,0.008726646192371845,-0.0010908307740464807
246,580637,0.11999999731779099,-0.009999999776482582,-0.2800000011920929,-0.0010908307740464807,0.0,-0.0010908307740464807
246,581651,0.07999999821186066,0.0,-0.27000001072883606,0.0,-0.007635815534740686,0.0021816615480929613
246,583634,0.09000000357627869,-0.03999999910593033,-0.28999999165534973,-0.0010908307740464807,0.0010908307740464807,-0.0010908307740464807
246,584649,0.05999999865889549,-0.009999999776482582,-0.3100000023841858,0.0021816615480929613,0.004363323096185923,-0.0021816615480929613
246,586642,0.09000000357627869,-0.019999999552965164,-0.2800000011920929,0.0,-0.003272492438554764,-0.003272492438554764
246,587668,0.10999999940395355,-0.07000000029802322,-0.3100000023841858,-0.0010908307740464807,0.0054541537538170815,0.0010908307740464807
246,589661,0.07000000029802322,0.0,-0.3100000023841858,0.0021816615480929613,0.0021816615480929613,-0.0010908307740464807
246,591670,0.10000000149011612,0.15000000596046448,-0.27000001072883606,-0.0021816615480929613,-0.003272492438554764,0.0010908307740464807
246,593672,0.05000000074505806,0.009999999776482582,-0.27000001072883606,-0.0021816615480929613,0.0010908307740464807,0.0
246,594695,0.05999999865889549,0.009999999776482582,-0.30000001192092896,-0.0021816615480929613,-0.004363323096185923,0.003272492438554764
246,596587,0.07000000029802322,-0.019999999552965164,-0.28999999165534973,-0.0010908307740464807,0.003272492438554764,0.0
246,597599,0.05999999865889549,0.0,-0.3199999928474426,0.0,-0.0054541537538170815,-0.0010908307740464807
246,598611,0.03999999910593033,-0.009999999776482582,-0.2800000011920929,-0.0010908307740464807,-0.006544984877109528,0.004363323096185923
246,599622,0.05000000074505806,-0.03999999910593033,-0.3199999928474426,-0.0010908307740464807,-0.003272492438554764,0.0
246,600639,0.07000000029802322,-0.03999999910593033,-0.30000001192092896,0.0,0.0010908307740464807,-0.0010908307740464807
246,601656,0.07999999821186066,-0.03999999910593033,-0.2800000011920929,0.0010908307740464807,-0.0054541537538170815,-0.0010908307740464807
246,603637,0.05999999865889549,-0.03999999910593033,-0.3100000023841858,0.0010908307740464807,-0.0010908307740464807,0.003272492438554764
246,604649,0.07999999821186066,0.0,-0.2800000011920929,0.0010908307740464807,0.010908307507634163,0.0010908307740464807
246,605667,0.029999999329447746,-0.12999999523162842,-0.27000001072883606,-0.0010908307740464807,-0.007635815534740686,0.0010908307740464807
246,607661,0.0,-0.05000000074505806,-0.30000001192092896,-0.0010908307740464807,0.0021816615480929613,0.0010908307740464807
246,609653,0.03999999910593033,-0.03999999910593033,-0.3199999928474426,0.0010908307740464807,0.004363323096185923,-0.0010908307740464807
246,611651,0.05999999865889549,-0.05999999865889549,-0.2800000011920929,0.0,-0.008726646192371845,0.0010908307740464807
246,613630,0.05000000074505806,0.019999999552965164,-0.30000001192092896,-0.0010908307740464807,-0.003272492438554764,0.0010908307740464807
246,614650,0.05999999865889549,0.03999999910593033,-0.3100000023841858,-0.0021816615480929613,0.0010908307740464807,0.0021816615480929613
246,616655,0.07999999821186066,-0.019999999552965164,-0.30000001192092896,-0.003272492438554764,-0.0010908307740464807,0.0010908307740464807
246,617676,0.09000000357627869,-0.019999999552965164,-0.33000001311302185,-0.0021816615480929613,0.004363323096185923,0.0010908307740464807
246,619674,0.07999999821186066,0.009999999776482582,-0.28999999165534973,-0.0010908307740464807,0.0010908307740464807,-0.0010908307740464807
246,620694,0.10999999940395355,-0.019999999552965164,-0.2800000011920929,0.0010908307740464807,-0.0021816615480929613,0.0010908307740464807
246,622586,0.07999999821186066,-0.019999999552965164,-0.30000001192092896,0.0,0.003272492438554764,-0.0010908307740464807
246,623600,0.009999999776482582,0.0,-0.3100000023841858,0.0021816615480929613,0.0,-0.0010908307740464807
246,624617,0.10000000149011612,-0.029999999329447746,-0.3199999928474426,-0.0010908307740464807,-0.003272492438554764,0.0010908307740464807
246,625636,0.07999999821186066,-0.05999999865889549,-0.28999999165534973,0.0,0.004363323096185923,0.0
246,626657,0.10000000149011612,-0.05000000074505806,-0.30000001192092896,0.0,0.0010908307740464807,-0.003272492438554764
246,628641,0.14000000059604645,-0.009999999776482582,-0.30000001192092896,0.0,-0.0021816615480929613,0.0021816615480929613
246,629661,0.09000000357627869,0.019999999552965164,-0.30000001192092896,-0.0010908307740464807,0.0010908307740464807,0.0
246,631645,0.09000000357627869,-0.019999999552965164,-0.28999999165534973,0.0,0.003272492438554764,0.0010908307740464807
246,633641,0.11999999731779099,-0.009999999776482582,-0.3199999928474426,-0.0010908307740464807,0.0010908307740464807,0.0
246,635626,0.15000000596046448,-0.019999999552965164,-0.28999999165534973,0.0010908307740464807,0.003272492438554764,-0.0010908307740464807
246,637619,0.11999999731779099,-0.029999999329447746,-0.3100000023841858,0.0,0.0054541537538170815,-0.0021816615480929613
246,638638,0.10000000149011612,0.019999999552965164,-0.25,-0.0021816615480929613,-0.0021816615480929613,0.0010908307740464807
246,639650,0.029999999329447746,-0.029999999329447746,-0.28999999165534973,0.0,0.003272492438554764,0.0010908307740464807
246,640665,0.019999999552965164,-0.03999999910593033,-0.30000001192092896,-0.0010908307740464807,0.0,0.0
246,642644,0.05000000074505806,0.10999999940395355,-0.3199999928474426,0.0010908307740464807,0.003272492438554764,0.0010908307740464807
246,643654,0.05999999865889549,-0.009999999776482582,-0.3199999928474426,0.0,-0.006544984877109528,0.0010908307740464807
246,645631,0.05999999865889549,-0.009999999776482582,-0.3100000023841858,-0.0021816615480929613,0.006544984877109528,-0.0021816615480929613
246,646636,0.0,-0.05000000074505806,-0.33000001311302185,0.0,-0.007635815534740686,0.0021816615480929613
246,647641,0.09000000357627869,0.0,-0.3199999928474426,0.0021816615480929613,-0.0021816615480929613,-0.0021816615480929613
246,648652,0.07999999821186066,-0.07000000029802322,-0.25999999046325684,-0.0010908307740464807,0.010908307507634163,-0.004363323096185923
246,649662,0.03999999910593033,-0.029999999329447746,-0.2800000011920929,0.003272492438554764,-0.0021816615480929613,0.0
246,650682,0.029999999329447746,-0.019999999552965164,-0.28999999165534973,0.0,-0.007635815534740686,-0.0021816615480929613
246,652400,-0.019999999552965164,-0.029999999329447746,-0.30000001192092896,-0.0021816615480929613,-0.003272492438554764,0.0
246,653497,-0.009999999776482582,-0.029999999329447746,-0.2800000011920929,-0.0010908307740464807,0.0,0.0
246,654581,0.009999999776482582,-0.05000000074505806,-0.2800000011920929,0.0,0.0010908307740464807,0.0
246,655594,0.019999999552965164,0.0,-0.30000001192092896,0.0,0.0,0.0
246,656606,-0.019999999552965164,0.0,-0.3100000023841858,0.0021816615480929613,-0.006544984877109528,0.0
246,657621,0.019999999552965164,-0.05000000074505806,-0.27000001072883606,-0.0021816615480929613,-0.004363323096185923,0.0
246,658639,-0.029999999329447746,-0.029999999329447746,-0.28999999165534973,0.0021816615480929613,-0.0010908307740464807,-0.0010908307740464807
246,660626,0.009999999776482582,0.0,-0.28999999165534973,-0.0010908307740464807,0.0010908307740464807,0.0010908307740464807
246,661641,-0.03999999910593033,-0.009999999776482582,-0.30000001192092896,0.0,0.0021816615480929613,0.0021816615480929613
246,663626,-0.009999999776482582,-0.09000000357627869,-0.30000001192092896,0.0010908307740464807,-0.003272492438554764,0.0010908307740464807
246,664644,0.03999999910593033,-0.03999999910593033,-0.30000001192092896,0.003272492438554764,0.0,-0.0021816615480929613
246,665668,0.009999999776482582,0.0,-0.28999999165534973,-0.0021816615480929613,0.0,0.0010908307740464807
246,667657,0.019999999552965164,0.0,-0.3199999928474426,0.0,0.0,0.0
246,669643,0.0,-0.009999999776482582,-0.28999999165534973,0.0,0.0010908307740464807,-0.003272492438554764
246,671628,0.0,-0.03999999910593033,-0.3100000023841858,-0.0010908307740464807,-0.004363323096185923,0.0021816615480929613
246,672646,0.019999999552965164,-0.05999999865889549,-0.2800000011920929,0.0010908307740464807,0.0021816615480929613,0.0010908307740464807
246,673655,0.05999999865889549,-0.03999999910593033,-0.3100000023841858,-0.0010908307740464807,-0.0010908307740464807,0.0010908307740464807
246,675640,0.0,0.009999999776482582,-0.28999999165534973,-0.0010908307740464807,0.0010908307740464807,0.0
246,676660,-0.029999999329447746,-0.10999999940395355,-0.30000001192092896,0.0,0.008726646192371845,-0.003272492438554764
246,678641,-0.009999999776482582,-0.07000000029802322,-0.28999999165534973,0.0010908307740464807,-0.003272492438554764,0.0010908307740464807
246,679661,0.0,-0.05999999865889549,-0.28999999165534973,0.003272492438554764,0.0054541537538170815,-0.0021816615480929613
246,680682,0.009999999776482582,-0.07000000029802322,-0.30000001192092896,0.0,-0.0021816615480929613,0.0021816615480929613
246,682591,0.05000000074505806,-0.029999999329447746,-0.3100000023841858,-0.0021816615480929613,0.0010908307740464807,0.0
246,683616,0.019999999552965164,-0.05999999865889549,-0.30000001192092896,0.0021816615480929613,0.0021816615480929613,0.0021816615480929613
246,684645,0.05999999865889549,0.0,-0.2800000011920929,0.003272492438554764,0.006544984877109528,-0.0021816615480929613
246,686645,0.029999999329447746,-0.03999999910593033,-0.2800000011920929,0.0010908307740464807,0.0054541537538170815,-0.0021816615480929613
246,688652,0.009999999776482582,0.0,-0.28999999165534973,0.0010908307740464807,0.0021816615480929613,0.0010908307740464807
246,690648,0.009999999776482582,-0.07000000029802322,-0.2800000011920929,-0.0021816615480929613,-0.004363323096185923,0.0
246,691668,0.009999999776482582,-0.009999999776482582,-0.25999999046325684,0.0,-0.0021816615480929613,0.0
246,693651,-0.05000000074505806,0.05000000074505806,-0.3499999940395355,-0.003272492438554764,0.0021816615480929613,-0.0021816615480929613
246,695642,-0.03999999910593033,-0.09000000357627869,-0.30000001192092896,-0.0010908307740464807,-0.006544984877109528,0.0
246,696660,-0.05000000074505806,-0.009999999776482582,-0.27000001072883606,0.0,-0.003272492438554764,-0.0021816615480929613
246,698650,-0.029999999329447746,0.0,-0.3100000023841858,0.0,0.0010908307740464807,0.0
246,700642,0.0,-0.029999999329447746,-0.27000001072883606,-0.0010908307740464807,-0.009817477315664291,0.004363323096185923
246,701657,-0.03999999910593033,-0.029999999329447746,-0.33000001311302185,0.0,-0.003272492438554764,0.0
246,703636,-0.009999999776482582,-0.03999999910593033,-0.2800000011920929,0.0010908307740464807,-0.0010908307740464807,-0.0021816615480929613
246,704656,-0.009999999776482582,-0.05999999865889549,-0.27000001072883606,-0.0010908307740464807,0.003272492438554764,-0.0021816615480929613
246,706640,-0.029999999329447746,-0.009999999776482582,-0.25999999046325684,0.0010908307740464807,-0.006544984877109528,0.0010908307740464807
246,708629,-0.009999999776482582,-0.019999999552965164,-0.2800000011920929,0.0,0.014180799946188927,-0.004363323096185923
246,709645,0.029999999329447746,-0.05000000074505806,-0.27000001072883606,-0.004363323096185923,0.007635815534740686,-0.0010908307740464807
246,710666,-0.03999999910593033,0.03999999910593033,-0.28999999165534973,0.0,0.0021816615480929613,0.0
246,711686,-0.03999999910593033,0.0,-0.2800000011920929,-0.0010908307740464807,0.007635815534740686,0.0
246,713578,-0.03999999910593033,-0.05000000074505806,-0.27000001072883606,-0.0010908307740464807,0.007635815534740686,-0.0010908307740464807
246,714595,-0.05999999865889549,-0.05000000074505806,-0.28999999165534973,0.0010908307740464807,0.0,0.0021816615480929613
246,715613,-0.10000000149011612,-0.10000000149011612,-0.25999999046325684,0.0,0.0,0.0
246,716628,-0.05000000074505806,0.009999999776482582,-0.27000001072883606,-0.0010908307740464807,-0.0021816615480929613,-0.0010908307740464807
246,717642,-0.05000000074505806,-0.009999999776482582,-0.27000001072883606,0.0010908307740464807,0.007635815534740686,-0.003272492438554764
246,718657,-0.09000000357627869,-0.10000000149011612,-0.30000001192092896,-0.0021816615480929613,0.003272492438554764,0.0010908307740464807
246,720645,-0.10000000149011612,-0.09000000357627869,-0.3100000023841858,-0.0021816615480929613,0.0054541537538170815,0.0
246,721655,-0.05999999865889549,0.07000000029802322,-0.3499999940395355,0.0021816615480929613,-0.004363323096185923,-0.0021816615480929613
246,723629,-0.029999999329447746,0.019999999552965164,-0.2800000011920929,0.0,0.0,0.0010908307740464807
246,724644,0.0,-0.07999999821186066,-0.27000001072883606,0.0021816615480929613,0.008726646192371845,-0.0010908307740464807
246,725662,0.03999999910593033,-0.25,-0.3400000035762787,-0.006544984877109528,-0.0054541537538170815,-0.0010908307740464807
246,727638,0.09000000357627869,-0.07000000029802322,-0.28999999165534973,0.0010908307740464807,-0.004363323096185923,0.0
246,728654,0.03999999910593033,-0.009999999776482582,-0.3100000023841858,0.0,-0.0021816615480929613,0.0010908307740464807
246,730631,0.03999999910593033,-0.05000000074505806,-0.2800000011920929,-0.0010908307740464807,0.0010908307740464807,0.0
246,731648,0.0,-0.10999999940395355,-0.2800000011920929,-0.0010908307740464807,-0.004363323096185923,-0.0021816615480929613
246,733637,0.07999999821186066,0.0,-0.27000001072883606,0.0,0.004363323096185923,-0.0010908307740464807
246,735626,0.07000000029802322,0.0,-0.27000001072883606,0.0021816615480929613,-0.0021816615480929613,0.0010908307740464807
246,736652,0.07999999821186066,-0.019999999552965164,-0.27000001072883606,0.0,-0.0021816615480929613,0.0
246,737672,0.07000000029802322,-0.07999999821186066,-0.28999999165534973,0.0010908307740464807,-0.0021816615480929613,0.0021816615480929613
246,739664,0.10000000149011612,0.0,-0.28999999165534973,-0.0021816615480929613,0.004363323096185923,-0.0021816615480929613
246,741658,0.12999999523162842,-0.05000000074505806,-0.28999999165534973,-0.0021816615480929613,0.0021816615480929613,0.0010908307740464807
246,742671,0.05000000074505806,-0.009999999776482582,-0.27000001072883606,0.0,0.0,0.0
246,744652,0.09000000357627869,-0.14000000059604645,-0.3499999940395355,0.0054541537538170815,-0.008726646192371845,-0.0021816615480929613
246,745659,-0.019999999552965164,-0.1899999976158142,-0.2800000011920929,0.007635815534740686,0.013089969754219055,0.0021816615480929613
246,747635,-0.07999999821186066,0.009999999776482582,-0.27000001072883606,-0.0021816615480929613,0.007635815534740686,-0.003272492438554764
246,749611,-0.019999999552965164,-0.05999999865889549,-0.2800000011920929,0.0010908307740464807,-0.010908307507634163,0.0054541537538170815
246,750619,0.07999999821186066,-0.05000000074505806,-0.30000001192092896,0.0,-0.007635815534740686,0.0021816615480929613
246,751631,-0.05000000074505806,-0.10999999940395355,-0.20999999344348907,-0.006544984877109528,-0.013089969754219055,0.003272492438554764
246,752648,-0.5899999737739563,-0.20000000298023224,-0.38999998569488525,-0.003272492438554764,-0.011999138630926609,0.0
246,754626,-0.029999999329447746,0.11999999731779099,-0.38999998569488525,0.0021816615480929613,0.006544984877109528,0.006544984877109528
246,755634,-0.03999999910593033,0.4099999964237213,-0.27000001072883606,-0.008726646192371845,0.003272492438554764,-0.0010908307740464807
246,757608,0.10000000149011612,0.11999999731779099,-0.3199999928474426,-0.003272492438554764,-0.011999138630926609,0.0021816615480929613
246,758615,0.05999999865889549,-0.17000000178813934,-0.28999999165534973,0.0010908307740464807,0.004363323096185923,0.0010908307740464807
246,759623,0.009999999776482582,-0.10000000149011612,-0.25999999046325684,-0.0021816615480929613,0.0010908307740464807,0.0
246,760634,-0.019999999552965164,-0.05000000074505806,-0.2800000011920929,-0.0010908307740464807,-0.0010908307740464807,-0.0010908307740464807
246,761645,-0.03999999910593033,-0.03999999910593033,-0.28999999165534973,-0.0021816615480929613,-0.0054541537538170815,0.0021816615480929613
246,762655,-0.03999999910593033,-0.05000000074505806,-0.28999999165534973,0.0010908307740464807,0.0010908307740464807,0.0
246,764629,-0.03999999910593033,-0.019999999552965164,-0.3100000023841858,-0.0021816615480929613,-0.0021816615480929613,-0.0010908307740464807
246,765639,0.05000000074505806,-0.07000000029802322,-0.25,0.0010908307740464807,-0.0010908307740464807,-0.0010908307740464807
246,767618,-0.009999999776482582,-0.03999999910593033,-0.3199999928474426,-0.0010908307740464807,0.0021816615480929613,0.0010908307740464807
246,768631,0.009999999776482582,-0.019999999552965164,-0.2800000011920929,0.0,0.0021816615480929613,-0.0010908307740464807
246,769640,-0.009999999776482582,-0.019999999552965164,-0.28999999165534973,0.0010908307740464807,-0.0021816615480929613,0.0
246,771625,0.0,-0.05000000074505806,-0.30000001192092896,0.0010908307740464807,0.0,0.0
246,772642,0.009999999776482582,-0.07999999821186066,-0.28999999165534973,-0.0010908307740464807,0.0,0.0021816615480929613
246,773656,0.029999999329447746,-0.029999999329447746,-0.30000001192092896,0.0010908307740464807,0.0,0.0
246,774669,0.019999999552965164,-0.019999999552965164,-0.28999999165534973,-0.0010908307740464807,0.0,0.0010908307740464807
246,776646,0.029999999329447746,-0.05000000074505806,-0.2800000011920929,-0.0010908307740464807,0.010908307507634163,-0.0010908307740464807
246,777658,0.05999999865889549,-0.019999999552965164,-0.3100000023841858,0.0,0.007635815534740686,0.0021816615480929613
246,779644,0.009999999776482582,-0.03999999910593033,-0.30000001192092896,-0.0010908307740464807,-0.003272492438554764,0.0
246,781640,0.05000000074505806,-0.05999999865889549,-0.28999999165534973,0.0010908307740464807,0.0021816615480929613,0.0010908307740464807
246,783636,0.009999999776482582,-0.029999999329447746,-0.27000001072883606,0.0,-0.0010908307740464807,0.0010908307740464807
246,785618,0.03999999910593033,-0.009999999776482582,-0.30000001192092896,0.0,0.006544984877109528,-0.0010908307740464807
246,786641,0.09000000357627869,-0.009999999776482582,-0.2800000011920929,0.0021816615480929613,0.0010908307740464807,0.003272492438554764
246,787656,0.10999999940395355,-0.05999999865889549,-0.28999999165534973,-0.0010908307740464807,0.0010908307740464807,0.0
246,789644,0.07000000029802322,-0.05000000074505806,-0.27000001072883606,-0.0010908307740464807,0.003272492438554764,0.0
246,790655,0.1599999964237213,-0.07000000029802322,-0.2800000011920929,0.0021816615480929613,0.0,-0.0010908307740464807
246,792645,0.14000000059604645,-0.03999999910593033,-0.2800000011920929,-0.0021816615480929613,-0.003272492438554764,0.0021816615480929613
246,793657,0.10000000149011612,-0.029999999329447746,-0.28999999165534973,-0.0021816615480929613,-0.0054541537538170815,0.0010908307740464807
246,795644,0.15000000596046448,-0.03999999910593033,-0.28999999165534973,0.0010908307740464807,0.0,-0.0021816615480929613
246,797627,0.12999999523162842,0.0,-0.27000001072883606,0.0,0.0010908307740464807,-0.0021816615480929613
246,798644,0.11999999731779099,-0.07999999821186066,-0.27000001072883606,0.0,0.0010908307740464807,-0.0010908307740464807
246,799664,0.17000000178813934,0.0,-0.28999999165534973,0.0,-0.003272492438554764,-0.0010908307740464807
246,801661,0.07000000029802322,-0.05000000074505806,-0.28999999165534973,-0.0010908307740464807,0.0010908307740464807,-0.003272492438554764
246,803652,0.10000000149011612,-0.029999999329447746,-0.30000001192092896,0.0,-0.0021816615480929613,-0.0010908307740464807
246,805647,0.10000000149011612,0.0,-0.30000001192092896,0.0,-0.0054541537538170815,0.0
246,807654,0.10000000149011612,-0.05000000074505806,-0.28999999165534973,-0.0010908307740464807,-0.0010908307740464807,0.0
246,809654,0.15000000596046448,-0.05999999865889549,-0.28999999165534973,-0.0021816615480929613,0.004363323096185923,0.0010908307740464807
246,811650,0.12999999523162842,-0.03999999910593033,-0.28999999165534973,0.0,-0.0021816615480929613,0.0010908307740464807
246,812677,0.20000000298023224,-0.029999999329447746,-0.2800000011920929,0.0010908307740464807,-0.004363323096185923,0.004363323096185923
246,814667,0.10999999940395355,-0.029999999329447746,-0.2800000011920929,-0.0010908307740464807,-0.009817477315664291,0.0010908307740464807
246,816663,0.12999999523162842,-0.10000000149011612,-0.30000001192092896,0.0010908307740464807,0.004363323096185923,0.0010908307740464807
246,818649,0.15000000596046448,-0.07000000029802322,-0.2800000011920929,0.0,0.0,-0.003272492438554764
246,819665,0.14000000059604645,-0.03999999910593033,-0.28999999165534973,-0.0021816615480929613,0.004363323096185923,0.0
246,821659,0.14000000059604645,-0.009999999776482582,-0.27000001072883606,-0.0010908307740464807,0.006544984877109528,-0.004363323096185923
246,823642,0.14000000059604645,0.009999999776482582,-0.30000001192092896,0.0,0.0021816615480929613,-0.0010908307740464807
246,824665,0.11999999731779099,-0.029999999329447746,-0.25,-0.0021816615480929613,0.0,0.0
246,826655,0.07000000029802322,-0.03999999910593033,-0.27000001072883606,0.0010908307740464807,-0.0010908307740464807,-0.0010908307740464807
246,827677,0.10999999940395355,0.0,-0.30000001192092896,-0.003272492438554764,-0.0054541537538170815,0.0
246,829576,0.07999999821186066,-0.029999999329447746,-0.28999999165534973,-0.0010908307740464807,0.0054541537538170815,0.0
246,830602,0.10999999940395355,-0.009999999776482582,-0.2800000011920929,0.0010908307740464807,0.0,-0.0021816615480929613
246,831622,0.11999999731779099,-0.029999999329447746,-0.2800000011920929,-0.0010908307740464807,-0.003272492438554764,0.0010908307740464807
246,832651,0.10000000149011612,-0.05000000074505806,-0.30000001192092896,-0.0010908307740464807,-0.0010908307740464807,0.0010908307740464807
246,833669,0.11999999731779099,-0.009999999776482582,-0.3100000023841858,0.0010908307740464807,-0.007635815534740686,-0.0010908307740464807
246,835658,0.09000000357627869,0.029999999329447746,-0.30000001192092896,0.0,0.004363323096185923,-0.0010908307740464807
246,837649,0.05000000074505806,-0.019999999552965164,-0.3100000023841858,-0.0010908307740464807,0.0010908307740464807,0.0
246,838667,0.03999999910593033,-0.03999999910593033,-0.27000001072883606,-0.0010908307740464807,-0.004363323096185923,0.0010908307740464807
246,840655,0.07999999821186066,-0.029999999329447746,-0.30000001192092896,-0.0010908307740464807,0.0054541537538170815,0.0021816615480929613
246,842650,0.03999999910593033,-0.14000000059604645,-0.2199999988079071,-0.0021816615480929613,0.004363323096185923,0.0
246,843664,0.07999999821186066,0.0,-0.33000001311302185,-0.0010908307740464807,-0.0021816615480929613,0.0021816615480929613
246,845649,0.009999999776482582,-0.11999999731779099,-0.28999999165534973,0.0,-0.003272492438554764,0.0
246,846677,0.019999999552965164,-0.03999999910593033,-0.28999999165534973,-0.0021816615480929613,-0.0010908307740464807,-0.0021816615480929613
246,848565,0.05000000074505806,-0.05999999865889549,-0.30000001192092896,-0.0010908307740464807,-0.0010908307740464807,0.0
246,849579,0.029999999329447746,-0.019999999552965164,-0.30000001192092896,0.0,0.0010908307740464807,0.0
246,850595,0.0,0.009999999776482582,-0.3100000023841858,0.0010908307740464807,0.014180799946188927,-0.0010908307740464807
246,851614,0.0,-0.07000000029802322,-0.2800000011920929,0.0021816615480929613,0.0054541537538170815,0.0
246,852634,-0.009999999776482582,-0.14000000059604645,-0.23999999463558197,0.0,-0.007635815534740686,0.0010908307740464807
246,853655,0.029999999329447746,0.0,-0.27000001072883606,-0.0010908307740464807,0.0054541537538170815,-0.004363323096185923
246,855651,-0.019999999552965164,0.019999999552965164,-0.28999999165534973,0.006544984877109528,-0.004363323096185923,0.0
246,857651,0.0,-0.029999999329447746,-0.30000001192092896,-0.0010908307740464807,0.0021816615480929613,0.0010908307740464807
246,859642,0.03999999910593033,0.09000000357627869,-0.3100000023841858,-0.0010908307740464807,0.0,0.0021816615480929613
246,861635,0.03999999910593033,-0.07000000029802322,-0.27000001072883606,0.0,0.007635815534740686,-0.0021816615480929613
246,862655,0.0,0.0,-0.2800000011920929,-0.0021816615480929613,-0.0010908307740464807,-0.004363323096185923
246,863674,0.029999999329447746,-0.05000000074505806,-0.2800000011920929,0.0,0.003272492438554764,0.0010908307740464807
246,865665,0.019999999552965164,-0.029999999329447746,-0.3100000023841858,0.0,-0.0010908307740464807,0.0021816615480929613
246,867649,0.05999999865889549,-0.029999999329447746,-0.2800000011920929,0.0010908307740464807,0.0054541537538170815,-0.0010908307740464807
246,868666,0.07000000029802322,0.0,-0.3100000023841858,0.0010908307740464807,0.003272492438554764,0.0010908307740464807
246,870645,0.029999999329447746,0.0,-0.27000001072883606,0.0010908307740464807,0.0010908307740464807,0.0021816615480929613
246,871665,0.10000000149011612,-0.03999999910593033,-0.28999999165534973,-0.0010908307740464807,0.008726646192371845,-0.0021816615480929613
246,873651,0.07000000029802322,-0.03999999910593033,-0.30000001192092896,-0.0010908307740464807,0.0021816615480929613,0.0
246,875644,0.07000000029802322,-0.019999999552965164,-0.2800000011920929,0.0,0.003272492438554764,-0.0010908307740464807
246,876662,0.10000000149011612,-0.019999999552965164,-0.27000001072883606,-0.0021816615480929613,0.007635815534740686,-0.0021816615480929613
246,878660,0.07999999821186066,-0.029999999329447746,-0.27000001072883606,-0.0021816615480929613,-0.0010908307740464807,0.0
246,880558,0.05999999865889549,-0.019999999552965164,-0.2800000011920929,-0.0021816615480929613,-0.003272492438554764,0.0
246,881584,0.05999999865889549,-0.029999999329447746,-0.27000001072883606,-0.0010908307740464807,0.0021816615480929613,-0.0010908307740464807
246,882606,0.11999999731779099,0.0,-0.30000001192092896,0.004363323096185923,0.0021816615480929613,0.0
246,883632,0.07000000029802322,0.12999999523162842,-0.25,0.004363323096185923,0.0,0.0
246,884651,-0.009999999776482582,-0.09000000357627869,-0.3100000023841858,0.0021816615480929613,-0.003272492438554764,0.0010908307740464807
246,885672,0.18000000715255737,0.3499999940395355,-0.28999999165534973,-0.0021816615480929613,-0.004363323096185923,-0.0021816615480929613
246,887669,0.029999999329447746,-0.05999999865889549,-0.27000001072883606,-0.0054541537538170815,-0.003272492438554764,0.0010908307740464807
246,889480,0.05999999865889549,0.0,-0.30000001192092896,0.0010908307740464807,0.0,-0.0010908307740464807
246,890590,-0.05999999865889549,-0.03999999910593033,-0.27000001072883606,-0.0021816615480929613,-0.003272492438554764,0.0
246,891610,0.07999999821186066,-0.019999999552965164,-0.27000001072883606,0.0010908307740464807,0.006544984877109528,-0.0021816615480929613
246,892622,-0.03999999910593033,-0.019999999552965164,-0.28999999165534973,0.0,-0.004363323096185923,0.0
246,893639,0.029999999329447746,-0.009999999776482582,-0.33000001311302185,-0.0021816615480929613,-0.004363323096185923,-0.0010908307740464807
246,894660,0.009999999776482582,-0.029999999329447746,-0.30000001192092896,0.0,0.0054541537538170815,-0.0010908307740464807
246,896640,0.03999999910593033,-0.009999999776482582,-0.30000001192092896,0.0,0.0,0.0010908307740464807
246,897660,0.03999999910593033,-0.009999999776482582,-0.2800000011920929,0.0010908307740464807,0.004363323096185923,-0.0010908307740464807
246,899647,0.009999999776482582,-0.029999999329447746,-0.30000001192092896,0.0,0.0021816615480929613,-0.0010908307740464807
246,901622,0.05999999865889549,-0.019999999552965164,-0.2800000011920929,0.0,-0.003272492438554764,0.0
246,902645,0.07000000029802322,-0.05000000074505806,-0.25999999046325684,-0.0010908307740464807,0.0010908307740464807,0.0010908307740464807
246,904635,0.10000000149011612,-0.05000000074505806,-0.2800000011920929,0.0,0.0054541537538170815,-0.0010908307740464807
246,906629,0.14000000059604645,0.0,-0.3100000023841858,0.0,-0.007635815534740686,0.0
246,907653,0.07999999821186066,-0.029999999329447746,-0.3100000023841858,0.0,0.003272492438554764,-0.0010908307740464807
246,909644,0.10999999940395355,0.05000000074505806,-0.2800000011920929,0.0010908307740464807,-0.0021816615480929613,0.0021816615480929613
246,911651,0.09000000357627869,-0.10999999940395355,-0.30000001192092896,0.0021816615480929613,-0.0010908307740464807,0.0
246,913636,0.07999999821186066,-0.03999999910593033,-0.30000001192092896,0.0010908307740464807,-0.008726646192371845,0.0021816615480929613
246,914655,0.05999999865889549,-0.019999999552965164,-0.2800000011920929,0.0,-0.0010908307740464807,0.0
246,916643,0.09000000357627869,-0.019999999552965164,-0.28999999165534973,0.0010908307740464807,0.0021816615480929613,0.0
246,917658,0.09000000357627869,-0.05000000074505806,-0.30000001192092896,0.0,0.0,0.0021816615480929613
246,919640,0.17000000178813934,-0.03999999910593033,-0.23999999463558197,-0.0010908307740464807,-0.003272492438554764,0.0021816615480929613
246,920651,0.12999999523162842,-0.029999999329447746,-0.2800000011920929,0.0021816615480929613,-0.004363323096185923,0.0
246,922636,0.07999999821186066,-0.03999999910593033,-0.28999999165534973,0.0010908307740464807,-0.0021816615480929613,0.0010908307740464807
246,923656,0.14000000059604645,-0.05999999865889549,-0.2800000011920929,0.0,-0.008726646192371845,0.0
246,924673,0.15000000596046448,-0.029999999329447746,-0.23000000417232513,0.0021816615480929613,0.003272492438554764,-0.0010908307740464807
246,926557,0.09000000357627869,0.029999999329447746,-0.25999999046325684,-0.0010908307740464807,-0.006544984877109528,0.0010908307740464807
246,927576,0.07999999821186066,0.05000000074505806,-0.3199999928474426,0.0,0.0010908307740464807,-0.003272492438554764
246,928600,0.05999999865889549,-0.09000000357627869,-0.2800000011920929,-0.0010908307740464807,0.003272492438554764,0.0010908307740464807
246,929620,0.07000000029802322,-0.07999999821186066,-0.2800000011920929,0.0,0.0010908307740464807,0.0010908307740464807
246,931620,0.03999999910593033,0.03999999910593033,-0.30000001192092896,0.0,-0.004363323096185923,0.004363323096185923
246,932637,0.03999999910593033,-0.10000000149011612,-0.27000001072883606,0.0,-0.003272492438554764,0.0021816615480929613
246,933660,0.10000000149011612,-0.10999999940395355,-0.2800000011920929,-0.0021816615480929613,-0.003272492438554764,0.0
246,935647,0.07000000029802322,-0.019999999552965164,-0.2800000011920929,0.0,-0.0021816615480929613,0.003272492438554764
246,937654,0.05000000074505806,-0.05000000074505806,-0.3100000023841858,0.0010908307740464807,0.009817477315664291,0.0
246,939644,0.10000000149011612,-0.019999999552965164,-0.30000001192092896,0.0021816615480929613,-0.007635815534740686,0.0010908307740464807
246,941635,0.09000000357627869,-0.05000000074505806,-0.25999999046325684,-0.0021816615480929613,0.004363323096185923,0.0
246,942650,0.029999999329447746,-0.019999999552965164,-0.28999999165534973,-0.0010908307740464807,-0.0010908307740464807,0.0021816615480929613
246,944631,0.10999999940395355,0.0,-0.2800000011920929,-0.0010908307740464807,0.0021816615480929613,-0.0021816615480929613
246,946619,0.1599999964237213,0.0,-0.2800000011920929,-0.0010908307740464807,-0.008726646192371845,0.0010908307740464807
246,947641,0.12999999523162842,-0.03999999910593033,-0.28999999165534973,-0.0021816615480929613,-0.0021816615480929613,-0.003272492438554764
246,948661,0.05999999865889549,-0.05000000074505806,-0.28999999165534973,0.0,0.006544984877109528,-0.0021816615480929613
246,950649,0.11999999731779099,0.019999999552965164,-0.3100000023841858,-0.0010908307740464807,-0.009817477315664291,0.0010908307740464807
246,952641,0.07000000029802322,-0.029999999329447746,-0.2800000011920929,0.0,-0.0010908307740464807,0.0
246,954642,0.0,-0.05000000074505806,-0.27000001072883606,0.0,0.008726646192371845,0.0
246,955662,0.0,-0.019999999552965164,-0.3100000023841858,0.0,0.0021816615480929613,0.0
246,957655,-0.03999999910593033,0.0,-0.33000001311302185,0.0,-0.004363323096185923,0.0010908307740464807
246,959641,0.0,-0.029999999329447746,-0.3100000023841858,0.0010908307740464807,-0.003272492438554764,-0.0021816615480929613
246,961638,-0.029999999329447746,0.1599999964237213,-0.30000001192092896,-0.0010908307740464807,0.0,0.0
246,963627,0.029999999329447746,-0.019999999552965164,-0.3199999928474426,0.0,-0.003272492438554764,0.0021816615480929613
246,964644,-0.009999999776482582,-0.029999999329447746,-0.3100000023841858,0.0021816615480929613,0.003272492438554764,-0.0021816615480929613
246,966634,-0.009999999776482582,0.07999999821186066,-0.4000000059604645,0.0010908307740464807,-0.003272492438554764,-0.0010908307740464807
246,967645,0.009999999776482582,0.019999999552965164,-0.28999999165534973,-0.0010908307740464807,0.0,-0.0010908307740464807
246,969625,-0.03999999910593033,0.009999999776482582,-0.2800000011920929,-0.0010908307740464807,0.006544984877109528,0.0021816615480929613
246,970641,0.0,-0.029999999329447746,-0.2800000011920929,-0.0021816615480929613,-0.0010908307740464807,-0.0010908307740464807
246,972620,-0.009999999776482582,-0.28999999165534973,-0.30000001192092896,-0.0021816615480929613,-0.0021816615480929613,0.0
246,973636,0.03999999910593033,-0.05999999865889549,-0.3100000023841858,0.0010908307740464807,-0.007635815534740686,0.0
246,975632,0.029999999329447746,-0.05999999865889549,-0.33000001311302185,-0.003272492438554764,-0.0021816615480929613,0.0010908307740464807
246,977624,0.05000000074505806,-0.07000000029802322,-0.33000001311302185,-0.0021816615480929613,-0.0054541537538170815,0.004363323096185923
246,979613,0.05000000074505806,-0.019999999552965164,-0.3100000023841858,0.0010908307740464807,-0.0021816615480929613,0.0010908307740464807
246,980363,0.019999999552965164,0.029999999329447746,-0.3199999928474426,0.0021816615480929613,0.0010908307740464807,0.0010908307740464807
246,981515,0.029999999329447746,-0.019999999552965164,-0.33000001311302185,0.0010908307740464807,0.0054541537538170815,-0.0010908307740464807
246,982569,0.029999999329447746,0.05000000074505806,-0.3199999928474426,0.0010908307740464807,-0.004363323096185923,0.004363323096185923
246,983590,0.009999999776482582,-0.09000000357627869,-0.25999999046325684,0.0021816615480929613,-0.007635815534740686,-0.0021816615480929613
246,984605,0.0,0.05999999865889549,-0.3799999952316284,0.0,-0.03163409233093262,0.006544984877109528
246,985634,0.009999999776482582,0.07999999821186066,-0.2800000011920929,0.0010908307740464807,-0.0054541537538170815,0.0010908307740464807
246,986654,-0.019999999552965164,0.09000000357627869,-0.33000001311302185,0.0010908307740464807,0.006544984877109528,-0.003272492438554764
246,988651,-0.09000000357627869,-0.029999999329447746,-0.30000001192092896,0.0,0.0,-0.0010908307740464807
246,989669,-0.05999999865889549,-0.03999999910593033,-0.25999999046325684,0.0,-0.007635815534740686,0.0
246,991660,0.0,-0.09000000357627869,-0.2800000011920929,-0.0010908307740464807,-0.009817477315664291,0.003272492438554764
246,992685,0.0,-0.07999999821186066,-0.3100000023841858,0.0010908307740464807,0.0,0.0021816615480929613
246,994576,-0.009999999776482582,-0.019999999552965164,-0.28999999165534973,-0.0021816615480929613,-0.0010908307740464807,-0.0021816615480929613
246,995595,-0.05000000074505806,-0.029999999329447746,-0.27000001072883606,0.0010908307740464807,-0.004363323096185923,0.0
246,996610,-0.009999999776482582,-0.07000000029802322,-0.2800000011920929,0.0,-0.0021816615480929613,0.0
246,997632,-0.03999999910593033,0.0,-0.3100000023841858,0.0010908307740464807,0.0010908307740464807,0.0
246,999624,0.009999999776482582,-0.07000000029802322,-0.28999999165534973,-0.0021816615480929613,-0.0010908307740464807,0.0010908307740464807
246,1001615,-0.3100000023841858,-0.07999999821186066,-0.28999999165534973,0.0010908307740464807,0.0054541537538170815,0.0021816615480929613
246,1002635,-0.07000000029802322,0.0,-0.2800000011920929,-0.0021816615480929613,0.0,0.003272492438554764
246,1004632,-0.05999999865889549,0.0,-0.28999999165534973,-0.0010908307740464807,-0.004363323096185923,0.0010908307740464807
246,1006634,-0.10000000149011612,0.0,-0.28999999165534973,-0.0010908307740464807,-0.004363323096185923,0.0
246,1008639,-0.029999999329447746,-0.07000000029802322,-0.3100000023841858,0.0010908307740464807,0.003272492438554764,0.0
246,1010633,-0.019999999552965164,-0.05000000074505806,-0.3100000023841858,0.0021816615480929613,0.0,0.0
246,1012636,-0.019999999552965164,0.029999999329447746,-0.33000001311302185,0.0,0.0021816615480929613,0.0
246,1013661,-0.029999999329447746,0.0,-0.3100000023841858,-0.0010908307740464807,0.0,0.0021816615480929613
246,1014685,-0.23000000417232513,-0.15000000596046448,-0.28999999165534973,0.0,-0.006544984877109528,0.0021816615480929613
246,1016686,-0.03999999910593033,-0.07000000029802322,-0.28999999165534973,0.0010908307740464807,0.004363323096185923,0.0010908307740464807
246,1018585,-0.029999999329447746,0.0,-0.28999999165534973,0.0021816615480929613,0.009817477315664291,-0.0010908307740464807
246,1019613,0.019999999552965164,0.0,-0.28999999165534973,-0.0010908307740464807,-0.006544984877109528,0.0010908307740464807
246,1020645,0.05000000074505806,-0.05999999865889549,-0.25999999046325684,0.0021816615480929613,-0.0010908307740464807,0.0010908307740464807
246,1021677,-0.009999999776482582,-0.03999999910593033,-0.3100000023841858,0.0,-0.0010908307740464807,0.003272492438554764
246,1023668,-0.05999999865889549,-0.03999999910593033,-0.2800000011920929,0.0,0.004363323096185923,0.0021816615480929613
246,1025675,-0.019999999552965164,-0.029999999329447746,-0.3100000023841858,-0.0010908307740464807,0.006544984877109528,0.0
246,1027585,0.03999999910593033,-0.019999999552965164,-0.2800000011920929,-0.003272492438554764,-0.003272492438554764,-0.0010908307740464807
246,1028607,-0.07000000029802322,-0.03999999910593033,-0.2800000011920929,0.0010908307740464807,0.0021816615480929613,-0.0010908307740464807
246,1029623,-0.029999999329447746,-0.05000000074505806,-0.2800000011920929,-0.0010908307740464807,0.003272492438554764,-0.0010908307740464807
246,1030647,0.03999999910593033,-0.10000000149011612,-0.23999999463558197,0.0,0.003272492438554764,0.0
246,1032645,-0.12999999523162842,0.0,-0.30000001192092896,0.0,-0.009817477315664291,0.0021816615480929613
246,1033667,-0.10999999940395355,-0.07999999821186066,-0.25999999046325684,0.0010908307740464807,0.004363323096185923,0.0
246,1035411,-0.09000000357627869,-0.09000000357627869,-0.27000001072883606,-0.0010908307740464807,-0.0021816615480929613,0.0
246,1036591,-0.05999999865889549,0.0,-0.30000001192092896,0.0,-0.0021816615480929613,0.0
246,1037613,-0.019999999552965164,0.029999999329447746,-0.27000001072883606,-0.0010908307740464807,0.004363323096185923,0.0010908307740464807
246,1038633,-0.05000000074505806,0.009999999776482582,-0.25,-0.0010908307740464807,0.0,-0.0010908307740464807
246,1039650,-0.09000000357627869,-0.009999999776482582,-0.30000001192092896,0.0021816615480929613,-0.0010908307740464807,0.0
246,1041646,-0.18000000715255737,-0.029999999329447746,-0.2800000011920929,-0.0010908307740464807,0.0054541537538170815,-0.0021816615480929613
246,1042666,-0.05999999865889549,-0.029999999329447746,-0.30000001192092896,0.0021816615480929613,-0.0054541537538170815,-0.0010908307740464807
246,1044693,-0.09000000357627869,-0.03999999910593033,-0.28999999165534973,-0.0021816615480929613,0.004363323096185923,-0.0010908307740464807
246,1046596,-0.07999999821186066,-0.05999999865889549,-0.2800000011920929,-0.0010908307740464807,0.0,0.0021816615480929613
246,1047623,0.03999999910593033,0.009999999776482582,-0.27000001072883606,0.0,-0.0010908307740464807,0.0021816615480929613
246,1048652,-0.05000000074505806,-0.05999999865889549,-0.30000001192092896,0.0,-0.0021816615480929613,0.0021816615480929613
246,1049684,-0.019999999552965164,-0.009999999776482582,-0.3400000035762787,0.0010908307740464807,0.0010908307740464807,-0.0010908307740464807
246,1051596,0.009999999776482582,-0.07000000029802322,-0.2800000011920929,-0.0010908307740464807,0.009817477315664291,-0.0010908307740464807
246,1052624,0.05000000074505806,-0.009999999776482582,-0.3100000023841858,0.0021816615480929613,-0.003272492438554764,0.0021816615480929613
246,1053652,0.05999999865889549,-0.029999999329447746,-0.3100000023841858,0.0,0.0,0.003272492438554764
246,1055656,0.07000000029802322,0.0,-0.30000001192092896,0.0010908307740464807,0.004363323096185923,-0.0021816615480929613
246,1057654,0.029999999329447746,0.009999999776482582,-0.30000001192092896,0.0,0.0010908307740464807,-0.0021816615480929613
246,1059654,0.05999999865889549,-0.019999999552965164,-0.3199999928474426,0.0021816615480929613,0.004363323096185923,-0.0021816615480929613
246,1061645,0.05000000074505806,-0.03999999910593033,-0.27000001072883606,0.0,0.0,0.0
246,1062669,0.05000000074505806,-0.029999999329447746,-0.30000001192092896,-0.0010908307740464807,-0.0021816615480929613,-0.0010908307740464807
246,1064656,0.03999999910593033,-0.05000000074505806,-0.3100000023841858,0.0,0.006544984877109528,-0.0010908307740464807
246,1066665,0.07000000029802322,-0.05999999865889549,-0.3100000023841858,-0.0021816615480929613,0.0054541537538170815,-0.0021816615480929613
246,1068664,0.07000000029802322,-0.019999999552965164,-0.30000001192092896,0.0010908307740464807,0.0,0.0
246,1070667,0.009999999776482582,-0.07999999821186066,-0.2800000011920929,0.0,-0.007635815534740686,0.0
246,1072566,-0.14000000059604645,-0.11999999731779099,-0.4399999976158142,-0.0021816615480929613,0.0,-0.003272492438554764
246,1073592,0.07000000029802322,-0.05000000074505806,-0.3799999952316284,-0.0021816615480929613,-0.006544984877109528,-0.0021816615480929613
246,1074629,0.09000000357627869,0.0,-0.30000001192092896,0.0,0.011999138630926609,-0.0021816615480929613
246,1075671,0.10000000149011612,0.009999999776482582,-0.30000001192092896,-0.0010908307740464807,0.004363323096185923,0.003272492438554764
246,1077592,0.0,-0.019999999552965164,-0.2800000011920929,-0.0010908307740464807,0.0,0.0010908307740464807
246,1078623,0.18000000715255737,-0.029999999329447746,-0.28999999165534973,-0.0010908307740464807,0.014180799946188927,-0.0010908307740464807
246,1079649,0.11999999731779099,-0.009999999776482582,-0.2800000011920929,0.0,-0.003272492438554764,0.0
246,1080684,0.1599999964237213,-0.019999999552965164,-0.30000001192092896,0.0,0.0,0.0021816615480929613
246,1082606,0.07999999821186066,-0.05000000074505806,-0.2800000011920929,0.0,0.0010908307740464807,-0.003272492438554764
246,1083640,0.11999999731779099,-0.03999999910593033,-0.30000001192092896,0.0010908307740464807,0.0,0.0
246,1085639,0.10999999940395355,-0.03999999910593033,-0.30000001192092896,-0.0010908307740464807,-0.009817477315664291,0.0021816615480929613
246,1087644,0.12999999523162842,0.03999999910593033,-0.3100000023841858,0.0,-0.006544984877109528,-0.003272492438554764
246,1089641,0.17000000178813934,0.0,-0.27000001072883606,-0.0010908307740464807,0.006544984877109528,-0.0021816615480929613
246,1091639,0.18000000715255737,-0.10000000149011612,-0.25999999046325684,0.0010908307740464807,0.007635815534740686,-0.0021816615480929613
246,1093632,0.029999999329447746,-0.019999999552965164,-0.25999999046325684,-0.0010908307740464807,-0.0054541537538170815,-0.0010908307740464807
246,1094656,0.14000000059604645,-0.03999999910593033,-0.30000001192092896,0.0,0.011999138630926609,-0.0021816615480929613
246,1096655,0.09000000357627869,-0.019999999552965164,-0.2800000011920929,-0.0010908307740464807,-0.006544984877109528,0.0
246,1098441,0.07000000029802322,0.09000000357627869,-0.30000001192092896,0.0021816615480929613,0.0054541537538170815,-0.003272492438554764
246,1099594,0.07000000029802322,0.029999999329447746,-0.3199999928474426,0.0,0.0010908307740464807,-0.0021816615480929613
246,1100620,0.10000000149011612,0.0,-0.30000001192092896,-0.0010908307740464807,0.02508910745382309,-0.0010908307740464807
246,1102619,0.14000000059604645,-0.029999999329447746,-0.2800000011920929,-0.0010908307740464807,-0.015271631069481373,0.0
246,1103649,0.17000000178813934,0.019999999552965164,-0.33000001311302185,0.0010908307740464807,-0.009817477315664291,0.0021816615480929613
246,1105665,0.17000000178813934,-0.05000000074505806,-0.25999999046325684,0.0,-0.013089969754219055,0.003272492438554764
246,1107675,0.15000000596046448,-0.05999999865889549,-0.25999999046325684,-0.0010908307740464807,-0.004363323096185923,0.003272492438554764
246,1109670,0.12999999523162842,-0.03999999910593033,-0.30000001192092896,0.0,0.0,0.0
246,1111543,0.07999999821186066,0.0,-0.30000001192092896,-0.0010908307740464807,0.0054541537538170815,0.0
246,1112597,0.10999999940395355,-0.05000000074505806,-0.28999999165534973,0.0,-0.0021816615480929613,0.0
246,1113616,0.12999999523162842,-0.019999999552965164,-0.2800000011920929,-0.0010908307740464807,0.0,0.0021816615480929613
246,1114631,0.14000000059604645,0.10999999940395355,-0.3100000023841858,-0.0021816615480929613,0.0054541537538170815,0.0021816615480929613
246,1115649,0.14000000059604645,-0.03999999910593033,-0.27000001072883606,-0.0010908307740464807,-0.003272492438554764,-0.0010908307740464807
246,1117636,0.09000000357627869,-0.07000000029802322,-0.30000001192092896,-0.003272492438554764,-0.0010908307740464807,-0.0010908307740464807
246,1118654,0.05000000074505806,-0.009999999776482582,-0.2800000011920929,0.0,-0.004363323096185923,0.0
246,1120646,0.28999999165534973,-0.019999999552965164,-0.27000001072883606,-0.0010908307740464807,0.0021816615480929613,-0.0021816615480929613
246,1122651,0.019999999552965164,-0.029999999329447746,-0.2800000011920929,0.0010908307740464807,-0.0021816615480929613,-0.003272492438554764
246,1124646,-0.05000000074505806,-0.4000000059604645,-0.3199999928474426,0.0021816615480929613,0.004363323096185923,0.0021816615480929613
246,1126644,0.0,-0.019999999552965164,-0.28999999165534973,-0.0010908307740464807,-0.0054541537538170815,0.0
246,1127675,0.009999999776482582,-0.05999999865889549,-0.3199999928474426,0.0010908307740464807,-0.007635815534740686,0.0010908307740464807
246,1129686,0.009999999776482582,-0.05999999865889549,-0.3400000035762787,0.0021816615480929613,0.004363323096185923,-0.0021816615480929613
246,1131680,-0.029999999329447746,0.019999999552965164,-0.3100000023841858,0.0010908307740464807,-0.0010908307740464807,-0.0021816615480929613
246,1133574,0.0,0.0,-0.30000001192092896,0.0,-0.0010908307740464807,0.0
246,1134601,0.009999999776482582,0.03999999910593033,-0.27000001072883606,0.0010908307740464807,0.0010908307740464807,-0.0021816615480929613
246,1135629,-0.009999999776482582,-0.12999999523162842,-0.3199999928474426,-0.0010908307740464807,-0.009817477315664291,0.0021816615480929613
246,1136649,-0.029999999329447746,-0.019999999552965164,-0.28999999165534973,0.0010908307740464807,-0.003272492438554764,0.0021816615480929613
246,1137667,-0.03999999910593033,0.0,-0.3100000023841858,-0.0010908307740464807,-0.008726646192371845,0.0010908307740464807
246,1139656,-0.029999999329447746,-0.15000000596046448,-0.28999999165534973,0.0,0.007635815534740686,-0.0010908307740464807
246,1140681,0.029999999329447746,-0.029999999329447746,-0.2800000011920929,0.0021816615480929613,0.013089969754219055,-0.0010908307740464807
246,1142571,0.0,-0.009999999776482582,-0.3100000023841858,-0.004363323096185923,0.0,0.0
246,1143594,0.009999999776482582,0.0,-0.2800000011920929,0.0,0.008726646192371845,0.0
246,1144614,0.0,0.1599999964237213,-0.33000001311302185,-0.0010908307740464807,0.004363323096185923,0.0
246,1145636,0.05000000074505806,-0.28999999165534973,-0.33000001311302185,0.0010908307740464807,0.013089969754219055,-0.003272492438554764
246,1147632,0.009999999776482582,-0.11999999731779099,-0.3700000047683716,-0.0010908307740464807,-0.0054541537538170815,0.0
246,1149634,0.009999999776482582,-0.05999999865889549,-0.2800000011920929,0.0010908307740464807,-0.003272492438554764,-0.0010908307740464807
246,1151628,-0.019999999552965164,-0.029999999329447746,-0.30000001192092896,-0.0010908307740464807,0.006544984877109528,0.0
246,1153619,0.0,-0.009999999776482582,-0.33000001311302185,0.0010908307740464807,0.01636246219277382,-0.0054541537538170815
246,1154639,0.05000000074505806,-0.10999999940395355,-0.1899999976158142,0.0,-0.007635815534740686,0.004363323096185923
246,1156636,0.019999999552965164,0.0,-0.27000001072883606,0.0,-0.007635815534740686,0.0021816615480929613
246,1157657,0.029999999329447746,-0.009999999776482582,-0.30000001192092896,0.0,0.0054541537538170815,0.0
246,1159654,0.07000000029802322,0.0,-0.2800000011920929,0.0,-0.0021816615480929613,0.0
246,1161649,0.0,0.0,-0.25,-0.0010908307740464807,-0.008726646192371845,0.0010908307740464807
246,1163638,0.0,-0.10999999940395355,-0.2800000011920929,0.0021816615480929613,0.0010908307740464807,-0.003272492438554764
246,1165640,0.07000000029802322,-0.03999999910593033,-0.2800000011920929,0.0,-0.003272492438554764,0.0010908307740464807
246,1166667,0.05000000074505806,-0.07000000029802322,-0.3100000023841858,0.0010908307740464807,0.0054541537538170815,-0.0021816615480929613
246,1167685,0.029999999329447746,-0.019999999552965164,-0.28999999165534973,0.004363323096185923,-0.007635815534740686,0.0
246,1169584,0.07000000029802322,0.0,-0.2800000011920929,0.0,0.008726646192371845,-0.0021816615480929613
246,1170611,0.07000000029802322,-0.05000000074505806,-0.25999999046325684,0.0,-0.008726646192371845,-0.003272492438554764
246,1171626,0.05000000074505806,0.05999999865889549,-0.3100000023841858,0.0,0.019634954631328583,-0.0021816615480929613
246,1173626,0.10999999940395355,0.0,-0.3199999928474426,0.0,-0.006544984877109528,-0.0010908307740464807
246,1175617,0.12999999523162842,-0.019999999552965164,-0.28999999165534973,0.0,0.0021816615480929613,0.0010908307740464807
246,1176633,0.15000000596046448,-0.07999999821186066,-0.25999999046325684,-0.0010908307740464807,0.0359974168241024,-0.0010908307740464807
246,1178634,0.10999999940395355,-0.009999999776482582,-0.27000001072883606,-0.003272492438554764,-0.0021816615480929613,0.0
246,1179655,0.14000000059604645,-0.07000000029802322,-0.25999999046325684,0.0,0.0054541537538170815,0.0
246,1181656,0.17000000178813934,-0.03999999910593033,-0.28999999165534973,0.0010908307740464807,0.011999138630926609,-0.0021816615480929613
246,1183649,0.10999999940395355,0.009999999776482582,-0.3100000023841858,0.0010908307740464807,0.0,-0.0021816615480929613
246,1185630,0.09000000357627869,-0.11999999731779099,-0.27000001072883606,0.0010908307740464807,0.007635815534740686,-0.003272492438554764
246,1186649,-0.07000000029802322,-0.07999999821186066,-0.38999998569488525,0.004363323096185923,-0.008726646192371845,-0.0010908307740464807
246,1188640,0.2199999988079071,-0.009999999776482582,-0.25,0.0,-0.05235987901687622,0.008726646192371845
246,1189653,0.03999999910593033,0.46000000834465027,-0.38999998569488525,0.003272492438554764,0.01745329238474369,0.0
246,1190674,-0.019999999552965164,0.12999999523162842,-0.33000001311302185,-0.0021816615480929613,-0.019634954631328583,0.006544984877109528
246,1192535,0.03999999910593033,0.019999999552965164,-0.3100000023841858,-0.0021816615480929613,0.014180799946188927,-0.004363323096185923
246,1193599,0.05000000074505806,-0.029999999329447746,-0.30000001192092896,0.003272492438554764,0.0021816615480929613,-0.0010908307740464807
246,1194624,0.009999999776482582,-0.07999999821186066,-0.28999999165534973,-0.003272492438554764,-0.004363323096185923,0.0010908307740464807
246,1195659,0.019999999552965164,0.009999999776482582,-0.3100000023841858,0.003272492438554764,-0.006544984877109528,0.0021816615480929613
246,1196699,0.019999999552965164,-0.07000000029802322,-0.28999999165534973,0.0,0.013089969754219055,-0.0010908307740464807
246,1198614,0.029999999329447746,-0.09000000357627869,-0.27000001072883606,0.0,0.004363323096185923,-0.0010908307740464807
246,1199639,0.03999999910593033,-0.019999999552965164,-0.3199999928474426,-0.004363323096185923,0.007635815534740686,-0.0021816615480929613
246,1201634,-0.14000000059604645,0.03999999910593033,-0.2800000011920929,-0.0054541537538170815,0.008726646192371845,0.0010908307740464807
246,1202664,-0.07000000029802322,-0.009999999776482582,-0.3199999928474426,0.0021816615480929613,-0.006544984877109528,0.0010908307740464807
246,1204576,-0.07000000029802322,-0.03999999910593033,-0.2800000011920929,0.0010908307740464807,-0.014180799946188927,0.0021816615480929613
246,1205607,-0.07999999821186066,0.0,-0.28999999165534973,0.0,-0.0054541537538170815,0.0021816615480929613
246,1206631,-0.10999999940395355,-0.05000000074505806,-0.28999999165534973,0.0,-0.0021816615480929613,0.0
246,1207653,-0.09000000357627869,0.05000000074505806,-0.28999999165534973,0.0010908307740464807,-0.008726646192371845,0.0021816615480929613
246,1208677,-0.019999999552965164,0.07999999821186066,-0.3499999940395355,0.0021816615480929613,0.0054541537538170815,0.0021816615480929613
246,1210576,-0.03999999910593033,0.20000000298023224,-0.28999999165534973,0.0010908307740464807,-0.0010908307740464807,0.0010908307740464807
246,1211593,-0.009999999776482582,0.009999999776482582,-0.3199999928474426,0.004363323096185923,0.009817477315664291,-0.0010908307740464807
246,1212615,0.0,-0.019999999552965164,-0.28999999165534973,-0.0010908307740464807,0.0010908307740464807,0.0
246,1213634,-0.009999999776482582,-0.05000000074505806,-0.3100000023841858,0.0010908307740464807,-0.0021816615480929613,0.0021816615480929613
246,1214657,0.0,-0.05999999865889549,-0.28999999165534973,0.0,-0.0010908307740464807,-0.0010908307740464807
246,1216664,-0.029999999329447746,-0.09000000357627869,-0.2800000011920929,0.0,-0.003272492438554764,0.0010908307740464807
246,1218675,0.05999999865889549,-0.019999999552965164,-0.30000001192092896,-0.003272492438554764,-0.010908307507634163,-0.0010908307740464807
246,1220580,-0.10000000149011612,-0.15000000596046448,-0.27000001072883606,-0.003272492438554764,0.011999138630926609,-0.004363323096185923
246,1221615,0.019999999552965164,0.15000000596046448,-0.3199999928474426,-0.0021816615480929613,-0.0021816615480929613,0.0021816615480929613
246,1222637,0.019999999552965164,-0.029999999329447746,-0.27000001072883606,0.0010908307740464807,-0.0021816615480929613,-0.0010908307740464807
246,1224647,-0.05000000074505806,-0.10000000149011612,-0.14000000059604645,0.0021816615480929613,0.004363323096185923,-0.003272492438554764
246,1226658,-0.05000000074505806,-0.019999999552965164,-0.3100000023841858,-0.004363323096185923,-0.003272492438554764,0.004363323096185923
246,1227691,0.9300000071525574,2.069999933242798,-0.41999998688697815,-0.003272492438554764,-0.02508910745382309,0.0021816615480929613
