header,program_time,accX,accY,accZ,gyroX,gyroY,gyroZ
246,7923,-0.07999999821186066,0.009999999776482582,-0.3499999940395355,-0.0010908307740464807,0.0010908307740464807,0.0010908307740464807
246,8810,-0.07000000029802322,0.019999999552965164,-0.33000001311302185,-0.0021816615480929613,0.0,0.0010908307740464807
246,9797,-0.09000000357627869,0.029999999329447746,-0.3499999940395355,0.0021816615480929613,-0.0021816615480929613,0.0
246,10785,-0.07000000029802322,0.03999999910593033,-0.3400000035762787,0.0,0.003272492438554764,0.0021816615480929613
246,11775,-0.09000000357627869,0.019999999552965164,-0.33000001311302185,0.0,0.003272492438554764,0.0
246,12761,-0.09000000357627869,0.03999999910593033,-0.3100000023841858,0.0,0.0,-0.0010908307740464807
246,13749,-0.10999999940395355,0.0,-0.3400000035762787,-0.0010908307740464807,0.0,0.0
246,14733,-0.10000000149011612,0.03999999910593033,-0.3499999940395355,0.0,0.0010908307740464807,0.0021816615480929613
246,15826,-0.10000000149011612,0.029999999329447746,-0.3400000035762787,-0.0010908307740464807,-0.0021816615480929613,0.0010908307740464807
246,16815,-0.10999999940395355,0.03999999910593033,-0.3400000035762787,0.0010908307740464807,0.0,-0.0010908307740464807
246,17802,-0.10999999940395355,0.029999999329447746,-0.3400000035762787,0.0,0.0010908307740464807,0.0
246,18795,-0.11999999731779099,0.03999999910593033,-0.3499999940395355,0.0021816615480929613,-0.0010908307740464807,0.0021816615480929613
246,19785,-0.10999999940395355,0.03999999910593033,-0.3499999940395355,0.0,0.0,0.0021816615480929613
246,20777,-0.11999999731779099,0.03999999910593033,-0.36000001430511475,0.0,0.0,-0.0021816615480929613
246,21764,-0.11999999731779099,0.019999999552965164,-0.3400000035762787,0.0,0.0010908307740464807,0.0010908307740464807
246,22752,-0.12999999523162842,0.019999999552965164,-0.3499999940395355,0.0,-0.0010908307740464807,-0.003272492438554764
246,23742,-0.12999999523162842,0.019999999552965164,-0.3499999940395355,0.0010908307740464807,0.0010908307740464807,-0.0010908307740464807
246,24832,-0.12999999523162842,0.05000000074505806,-0.33000001311302185,-0.0010908307740464807,0.0021816615480929613,-0.0021816615480929613
246,25825,-0.14000000059604645,0.03999999910593033,-0.3499999940395355,0.0010908307740464807,-0.0021816615480929613,0.0021816615480929613
246,26812,-0.12999999523162842,0.03999999910593033,-0.36000001430511475,-0.0010908307740464807,0.0010908307740464807,-0.0010908307740464807
246,27820,-0.14000000059604645,0.05000000074505806,-0.3400000035762787,0.0010908307740464807,-0.0010908307740464807,0.0
246,28629,-0.14000000059604645,0.009999999776482582,-0.30000001192092896,-0.0054541537538170815,0.0021816615480929613,-0.0010908307740464807
246,29637,-0.1599999964237213,0.03999999910593033,-0.3499999940395355,0.0,0.0,0.0010908307740464807
246,7773,0.0,0.0,-0.3400000035762787,-0.0010908307740464807,0.0010908307740464807,0.0010908307740464807
246,8989,0.0,0.0,-0.33000001311302185,0.0010908307740464807,0.0010908307740464807,-0.0010908307740464807
246,9903,-0.009999999776482582,0.009999999776482582,-0.33000001311302185,0.0,-0.0010908307740464807,-0.0010908307740464807
246,10913,0.0,0.009999999776482582,-0.36000001430511475,0.0021816615480929613,0.0,0.0
246,11932,-0.019999999552965164,0.0,-0.3700000047683716,0.0,0.0,-0.0010908307740464807
246,12951,-0.009999999776482582,-0.009999999776482582,-0.33000001311302185,0.0,0.0,0.0010908307740464807
246,13971,-0.009999999776482582,0.0,-0.3700000047683716,0.0010908307740464807,-0.0021816615480929613,-0.0010908307740464807
246,14993,-0.019999999552965164,-0.009999999776482582,-0.3400000035762787,0.0,0.0,-0.0010908307740464807
246,15917,-0.019999999552965164,0.0,-0.3499999940395355,0.0010908307740464807,0.0021816615480929613,0.0010908307740464807
246,16942,-0.019999999552965164,-0.009999999776482582,-0.3199999928474426,-0.0010908307740464807,0.0,-0.0010908307740464807
246,17965,-0.03999999910593033,0.0,-0.36000001430511475,-0.0021816615480929613,0.0021816615480929613,0.0
246,18993,-0.03999999910593033,0.0,-0.3400000035762787,-0.0021816615480929613,-0.0021816615480929613,-0.0010908307740464807
246,19914,-0.03999999910593033,0.0,-0.3499999940395355,-0.0010908307740464807,0.0010908307740464807,0.0021816615480929613
246,20939,-0.05999999865889549,0.0,-0.3499999940395355,0.0,-0.003272492438554764,0.0
246,21964,-0.05999999865889549,0.009999999776482582,-0.33000001311302185,0.0010908307740464807,0.0,0.003272492438554764
246,22986,-0.05000000074505806,0.0,-0.3799999952316284,-0.0021816615480929613,0.0010908307740464807,0.0010908307740464807
246,23909,-0.15000000596046448,-0.029999999329447746,-0.2199999988079071,0.08617562800645828,-0.14071716368198395,-0.0021816615480929613
246,8499,-0.07000000029802322,0.05000000074505806,0.009999999776482582,-0.0021816615480929613,-0.004363323096185923,0.0021816615480929613
246,9675,-0.07999999821186066,0.10000000149011612,0.17000000178813934,-0.007635815534740686,-0.06872233748435974,0.05345070734620094
246,10637,0.4399999976158142,-0.07000000029802322,0.5199999809265137,0.2934334874153137,-0.2988876402378082,0.4908738434314728
246,11718,0.36000001430511475,-0.10999999940395355,-0.3400000035762787,0.1439896672964096,0.21925698220729828,0.5683228373527527
246,12688,0.7400000095367432,-0.1899999976158142,0.1599999964237213,-1.2926344871520996,0.5268712639808655,-1.0690141916275024
246,13658,1.1200000047683716,-0.6200000047683716,-0.8999999761581421,0.6839509010314941,0.22471113502979279,0.123263880610466
246,14730,-0.6700000166893005,0.029999999329447746,-0.20999999344348907,0.021816615015268326,0.3425208628177643,0.05672319978475571
246,15698,-0.23000000417232513,-0.03999999910593033,-0.30000001192092896,-0.004363323096185923,0.1025380939245224,0.04472406208515167
246,16671,-0.11999999731779099,0.019999999552965164,-0.03999999910593033,0.05999569222331047,0.05890486016869545,0.02508910745382309
246,17741,-0.09000000357627869,-0.019999999552965164,-0.23999999463558197,0.07308565825223923,0.03490658476948738,-0.009817477315664291
246,18710,0.1899999976158142,-0.41999998688697815,-0.8600000143051147,0.07417649030685425,-0.142898827791214,-0.7853981852531433
246,19680,0.05999999865889549,0.9599999785423279,0.3100000023841858,0.21380282938480377,-0.6708609461784363,-1.5511614084243774
246,20648,-0.7599999904632568,0.8299999833106995,0.6499999761581421,7.636906147003174,7.363107681274414,3.8593592643737793
246,21721,0.41999998688697815,-0.6600000262260437,0.7699999809265137,1.672243595123291,0.6108652353286743,-0.4865105152130127
246,22691,0.18000000715255737,0.27000001072883606,0.05000000074505806,0.10362892597913742,0.21707531809806824,-0.17235125601291656
246,23664,-0.009999999776482582,0.3100000023841858,0.41999998688697815,0.2825251817703247,-0.31088677048683167,-0.23234695196151733
246,24737,0.05999999865889549,0.5099999904632568,0.6200000047683716,-0.06435901671648026,0.014180799946188927,0.08944812417030334
246,25711,0.05999999865889549,-0.12999999523162842,-0.27000001072883606,0.8508480191230774,-0.1287180334329605,-0.9370236396789551
246,26682,0.3100000023841858,-0.5299999713897705,0.23999999463558197,-0.07526732236146927,-0.16798794269561768,-0.35561081767082214
246,27657,-0.1899999976158142,0.15000000596046448,-0.4300000071525574,0.04036073759198189,0.04145156964659691,-0.029452430084347725
246,28731,0.0,-0.1599999964237213,-0.11999999731779099,-0.029452430084347725,-0.05999569222331047,-0.06981316953897476
246,29701,-0.05000000074505806,0.009999999776482582,0.25,0.0665406808257103,-0.32506757974624634,-0.20398534834384918
246,30671,0.3199999928474426,1.340000033378601,1.9700000286102295,-0.35233834385871887,-0.6424993276596069,-0.14617131650447845
246,31743,0.10999999940395355,-0.6000000238418579,-0.6299999952316284,0.004363323096185923,-0.14180800318717957,-0.4548764228820801
246,32711,-0.12999999523162842,-0.8899999856948853,1.2899999618530273,-0.2148936688899994,-0.21271200478076935,-0.037088245153427124
246,33686,0.0,-0.23999999463558197,0.9900000095367432,-0.5530511736869812,0.023998277261853218,-0.5497786998748779
246,34658,1.2899999618530273,0.2199999988079071,-0.6700000166893005,0.41778817772865295,0.7046766877174377,-0.26834437251091003
246,35733,-0.20999999344348907,0.8399999737739563,0.27000001072883606,-0.6817692518234253,-0.4603305757045746,-0.5977752804756165
246,36701,-1.6299999952316284,-0.5400000214576721,-0.8600000143051147,-0.20725785195827484,-0.15707963705062866,0.04908738657832146
246,37672,-0.8500000238418579,0.10000000149011612,0.03999999910593033,0.1494438201189041,-0.037088245153427124,-0.05672319978475571
246,38739,-1.3899999856948853,-0.9700000286102295,0.7400000095367432,0.10581058263778687,-0.16580627858638763,-0.45923975110054016
246,39710,0.44999998807907104,1.2300000190734863,-0.07999999821186066,0.01745329238474369,-0.022907447069883347,-0.04908738657832146
246,40681,-0.28999999165534973,-0.8199999928474426,-0.6100000143051147,-0.0010908307740464807,0.3283400535583496,-0.06544984877109528
246,41749,-0.14000000059604645,-0.03999999910593033,-0.17000000178813934,-0.0021816615480929613,-0.004363323096185923,0.0010908307740464807
246,42718,0.0,0.009999999776482582,-0.029999999329447746,-0.0021816615480929613,-0.0054541537538170815,0.0
246,43690,-0.009999999776482582,-0.009999999776482582,-0.03999999910593033,0.0010908307740464807,0.0010908307740464807,0.0
246,44659,0.0,0.009999999776482582,-0.07999999821186066,0.0021816615480929613,-0.0010908307740464807,0.0021816615480929613
246,45731,0.0,0.0,-0.03999999910593033,0.0,0.0,0.0010908307740464807
246,46706,0.009999999776482582,0.0,-0.03999999910593033,0.0,-0.0021816615480929613,0.0
246,47677,0.019999999552965164,0.0,-0.03999999910593033,0.0010908307740464807,0.0,0.0021816615480929613
246,48651,0.009999999776482582,-0.009999999776482582,-0.009999999776482582,0.0,-0.0010908307740464807,0.0010908307740464807
246,49723,0.0,0.009999999776482582,-0.05000000074505806,-0.0010908307740464807,0.0021816615480929613,0.0010908307740464807
246,50696,0.019999999552965164,0.0,-0.05000000074505806,0.0,-0.0010908307740464807,0.0010908307740464807
246,51666,-0.009999999776482582,0.0,-0.03999999910593033,0.0,-0.003272492438554764,0.0
246,52741,0.009999999776482582,0.0,-0.03999999910593033,0.0021816615480929613,0.0010908307740464807,-0.0010908307740464807
246,53712,0.0,0.0,-0.05999999865889549,0.0,0.0,-0.0010908307740464807
246,54687,0.0,0.0,-0.03999999910593033,0.0021816615480929613,-0.003272492438554764,0.0
246,55658,0.0,0.009999999776482582,-0.05999999865889549,0.0010908307740464807,-0.0010908307740464807,0.0021816615480929613
246,56728,0.009999999776482582,0.009999999776482582,-0.05000000074505806,0.0,0.0,0.0
246,57701,0.0,-0.009999999776482582,-0.05999999865889549,0.0,0.0021816615480929613,0.0
246,58671,0.009999999776482582,-0.009999999776482582,-0.03999999910593033,0.0010908307740464807,0.0,-0.0021816615480929613
246,59743,0.019999999552965164,0.019999999552965164,-0.05000000074505806,0.0010908307740464807,0.0,0.0
246,60713,0.0,0.009999999776482582,-0.03999999910593033,-0.0010908307740464807,0.0021816615480929613,-0.0010908307740464807
246,61683,0.009999999776482582,0.0,-0.019999999552965164,0.0,0.0021816615480929613,0.0010908307740464807
246,62656,0.019999999552965164,0.0,-0.029999999329447746,0.0010908307740464807,-0.0010908307740464807,0.0
246,63729,0.019999999552965164,0.03999999910593033,-0.029999999329447746,0.0021816615480929613,-0.0021816615480929613,0.0021816615480929613
246,64700,0.0,0.0,-0.05000000074505806,0.0010908307740464807,0.0021816615480929613,0.0010908307740464807
246,65676,0.029999999329447746,0.0,-0.05000000074505806,0.0,0.0010908307740464807,0.0010908307740464807
246,66746,0.03999999910593033,0.009999999776482582,-0.05000000074505806,-0.0010908307740464807,-0.004363323096185923,0.0021816615480929613
246,67715,0.03999999910593033,0.019999999552965164,-0.03999999910593033,-0.0010908307740464807,0.0010908307740464807,-0.0010908307740464807
246,68686,0.019999999552965164,0.019999999552965164,0.0,0.0010908307740464807,0.0010908307740464807,0.0010908307740464807
246,69659,0.03999999910593033,0.009999999776482582,-0.03999999910593033,0.0,-0.0010908307740464807,-0.0021816615480929613
246,70731,0.019999999552965164,0.009999999776482582,-0.03999999910593033,0.0,-0.0010908307740464807,0.0021816615480929613
246,71706,0.009999999776482582,0.009999999776482582,-0.03999999910593033,-0.0010908307740464807,0.0010908307740464807,-0.0010908307740464807
246,72676,0.019999999552965164,0.03999999910593033,-0.03999999910593033,0.0010908307740464807,0.0,0.0010908307740464807
246,73651,0.029999999329447746,0.07000000029802322,-0.029999999329447746,0.0010908307740464807,0.0,-0.0021816615480929613
246,74721,0.019999999552965164,0.03999999910593033,-0.05000000074505806,0.0010908307740464807,0.0021816615480929613,0.0
246,75695,0.03999999910593033,0.029999999329447746,-0.05000000074505806,0.0021816615480929613,0.0010908307740464807,0.0
246,76667,0.029999999329447746,0.009999999776482582,-0.05000000074505806,0.0,0.0,0.0010908307740464807
246,77741,0.05000000074505806,0.029999999329447746,-0.07000000029802322,0.0,0.0021816615480929613,0.0010908307740464807
246,78708,0.029999999329447746,0.05999999865889549,-0.03999999910593033,-0.0010908307740464807,-0.004363323096185923,-0.0010908307740464807
246,79678,0.05999999865889549,0.03999999910593033,-0.009999999776482582,0.0,-0.0010908307740464807,0.0
246,80651,0.019999999552965164,0.029999999329447746,-0.05000000074505806,0.0,-0.0021816615480929613,0.0010908307740464807
246,81725,0.03999999910593033,0.029999999329447746,-0.03999999910593033,-0.003272492438554764,-0.0021816615480929613,-0.0010908307740464807
246,82700,0.05000000074505806,0.019999999552965164,-0.009999999776482582,0.0,0.0021816615480929613,-0.0010908307740464807
246,83673,0.05999999865889549,0.029999999329447746,-0.03999999910593033,0.0010908307740464807,-0.0010908307740464807,0.0021816615480929613
246,84752,0.029999999329447746,0.05000000074505806,-0.07000000029802322,0.0,-0.0010908307740464807,-0.0010908307740464807
246,85726,0.07000000029802322,0.009999999776482582,-0.03999999910593033,-0.0010908307740464807,0.0021816615480929613,0.0
246,86701,0.03999999910593033,0.019999999552965164,-0.009999999776482582,0.0,0.0010908307740464807,0.0
246,87672,0.07000000029802322,0.0,-0.05000000074505806,0.0,0.0,0.0010908307740464807
246,88641,0.03999999910593033,0.029999999329447746,-0.03999999910593033,-0.0021816615480929613,0.0,0.0
246,89719,0.05000000074505806,0.03999999910593033,-0.03999999910593033,-0.0010908307740464807,-0.003272492438554764,0.0010908307740464807
246,90693,0.05000000074505806,0.05000000074505806,-0.019999999552965164,-0.0010908307740464807,0.0010908307740464807,-0.0021816615480929613
246,91663,0.05999999865889549,0.03999999910593033,-0.019999999552965164,-0.0010908307740464807,0.0,0.0
246,92737,0.05999999865889549,0.03999999910593033,-0.009999999776482582,0.0010908307740464807,-0.0010908307740464807,0.0
246,93706,0.07000000029802322,0.029999999329447746,-0.03999999910593033,0.0,0.0,0.0
246,94676,0.05999999865889549,0.03999999910593033,-0.029999999329447746,0.0,0.0,-0.0010908307740464807
246,95651,0.05999999865889549,0.019999999552965164,-0.019999999552965164,0.0,0.0021816615480929613,-0.0010908307740464807
246,96722,0.05999999865889549,0.03999999910593033,-0.05000000074505806,-0.0010908307740464807,0.0,0.0010908307740464807
246,97697,0.07999999821186066,0.029999999329447746,-0.05000000074505806,0.0010908307740464807,0.0010908307740464807,0.0
246,98671,0.05999999865889549,0.03999999910593033,-0.019999999552965164,0.0010908307740464807,-0.0010908307740464807,0.0021816615480929613
246,99746,0.05999999865889549,0.05000000074505806,-0.05000000074505806,0.0,0.0010908307740464807,0.0
246,100721,0.05000000074505806,0.029999999329447746,-0.019999999552965164,0.0010908307740464807,0.0010908307740464807,0.0010908307740464807
246,101693,0.09000000357627869,0.05000000074505806,-0.05999999865889549,0.0,-0.0010908307740464807,-0.0021816615480929613
246,102666,0.07000000029802322,0.03999999910593033,-0.03999999910593033,0.0010908307740464807,0.0021816615480929613,0.0010908307740464807
246,103738,0.05999999865889549,0.03999999910593033,-0.05000000074505806,0.0,-0.0010908307740464807,-0.0021816615480929613
246,104713,0.09000000357627869,0.05000000074505806,-0.03999999910593033,0.0021816615480929613,0.0,0.0
246,105686,0.10999999940395355,0.05000000074505806,-0.05999999865889549,0.0021816615480929613,0.0010908307740464807,-0.0021816615480929613
246,106660,0.07999999821186066,0.05000000074505806,-0.05000000074505806,-0.003272492438554764,-0.0010908307740464807,0.0010908307740464807
246,107732,0.09000000357627869,0.029999999329447746,-0.03999999910593033,-0.0010908307740464807,-0.003272492438554764,0.0
246,108706,0.09000000357627869,0.029999999329447746,-0.019999999552965164,-0.0021816615480929613,0.0010908307740464807,0.0021816615480929613
246,109677,0.09000000357627869,0.05000000074505806,-0.05000000074505806,0.0010908307740464807,0.0,0.0
246,110651,0.10999999940395355,0.03999999910593033,-0.019999999552965164,0.0010908307740464807,0.0010908307740464807,-0.0010908307740464807
246,111720,0.09000000357627869,0.05000000074505806,-0.03999999910593033,0.0010908307740464807,0.0021816615480929613,-0.0010908307740464807
246,112692,0.09000000357627869,0.029999999329447746,-0.03999999910593033,0.0010908307740464807,-0.0010908307740464807,0.0
246,113666,0.09000000357627869,0.03999999910593033,-0.029999999329447746,0.0010908307740464807,-0.0021816615480929613,0.0
246,114736,0.10000000149011612,0.05999999865889549,-0.03999999910593033,-0.0010908307740464807,0.0010908307740464807,-0.0010908307740464807
246,115707,0.10000000149011612,0.029999999329447746,-0.029999999329447746,0.0,0.0010908307740464807,-0.0010908307740464807
246,116682,0.09000000357627869,0.03999999910593033,-0.05000000074505806,0.0021816615480929613,-0.0010908307740464807,0.0010908307740464807
246,117655,0.07000000029802322,0.07000000029802322,-0.03999999910593033,0.0,0.0,-0.0010908307740464807
246,118729,0.10999999940395355,0.07000000029802322,-0.019999999552965164,0.0,0.003272492438554764,0.0010908307740464807
246,119703,0.09000000357627869,0.07000000029802322,-0.029999999329447746,0.0,0.0,-0.0010908307740464807
246,120675,0.11999999731779099,0.07000000029802322,-0.05000000074505806,-0.0010908307740464807,-0.0021816615480929613,0.0
246,121649,0.10999999940395355,0.07999999821186066,-0.05000000074505806,0.0010908307740464807,0.0010908307740464807,0.0021816615480929613
246,122721,0.10000000149011612,0.05999999865889549,-0.03999999910593033,0.0,-0.0010908307740464807,0.0010908307740464807
246,123693,0.09000000357627869,0.05999999865889549,-0.029999999329447746,0.0,0.003272492438554764,0.0
246,124667,0.10999999940395355,0.05999999865889549,-0.029999999329447746,0.0,-0.003272492438554764,0.0
246,125738,0.10000000149011612,-0.03999999910593033,-0.029999999329447746,0.0010908307740464807,0.0,-0.0021816615480929613
246,126715,0.09000000357627869,0.03999999910593033,-0.03999999910593033,-0.0010908307740464807,-0.0021816615480929613,-0.0021816615480929613
246,127688,0.10999999940395355,0.05000000074505806,-0.03999999910593033,0.0,-0.0010908307740464807,0.0021816615480929613
246,128664,0.09000000357627869,0.029999999329447746,-0.03999999910593033,0.0010908307740464807,0.0,0.0
246,129736,0.10000000149011612,0.05000000074505806,-0.029999999329447746,0.0,0.0021816615480929613,0.0021816615480929613
246,130710,0.10000000149011612,0.05000000074505806,-0.019999999552965164,-0.003272492438554764,-0.0021816615480929613,0.003272492438554764
246,131685,0.09000000357627869,0.05000000074505806,-0.03999999910593033,0.0,0.0,-0.0021816615480929613
246,132659,0.10999999940395355,0.05999999865889549,-0.029999999329447746,0.0,-0.0021816615480929613,-0.0010908307740464807
246,133731,0.07999999821186066,0.03999999910593033,-0.019999999552965164,0.0,0.0010908307740464807,0.0010908307740464807
246,134702,0.10000000149011612,0.07000000029802322,-0.03999999910593033,0.0010908307740464807,0.0021816615480929613,0.0
246,135678,0.12999999523162842,0.05000000074505806,-0.03999999910593033,0.0010908307740464807,0.0,-0.0010908307740464807
246,136655,0.10000000149011612,0.07000000029802322,-0.019999999552965164,0.0010908307740464807,0.0021816615480929613,-0.0010908307740464807
246,137728,0.10999999940395355,0.05999999865889549,-0.05000000074505806,0.0,-0.0021816615480929613,0.0
246,138702,0.09000000357627869,0.07000000029802322,-0.019999999552965164,-0.0010908307740464807,-0.003272492438554764,0.0
246,139673,0.09000000357627869,0.07000000029802322,-0.029999999329447746,0.0021816615480929613,-0.0010908307740464807,0.0010908307740464807
246,140747,0.07000000029802322,0.07000000029802322,0.029999999329447746,0.003272492438554764,0.0021816615480929613,0.0
246,141715,0.07999999821186066,0.07000000029802322,-0.029999999329447746,-0.0010908307740464807,-0.0010908307740464807,0.0021816615480929613
246,142688,0.10000000149011612,0.05999999865889549,-0.03999999910593033,0.0,0.003272492438554764,0.0
246,143660,0.10000000149011612,0.07000000029802322,-0.05000000074505806,0.0,0.003272492438554764,-0.0021816615480929613
246,144737,0.11999999731779099,0.09000000357627869,-0.009999999776482582,0.0,-0.0010908307740464807,-0.0010908307740464807
246,145709,0.10999999940395355,0.07999999821186066,-0.03999999910593033,-0.0021816615480929613,-0.0010908307740464807,-0.0010908307740464807
246,146684,0.10999999940395355,0.07000000029802322,-0.029999999329447746,0.0010908307740464807,0.0,-0.0010908307740464807
246,147656,0.10999999940395355,0.07000000029802322,-0.029999999329447746,0.0,0.0010908307740464807,-0.0021816615480929613
246,148728,0.10999999940395355,0.029999999329447746,-0.019999999552965164,0.0,0.0010908307740464807,0.0010908307740464807
246,149701,0.10999999940395355,0.05999999865889549,-0.03999999910593033,0.0010908307740464807,0.0021816615480929613,0.0
246,150675,0.14000000059604645,0.05999999865889549,-0.03999999910593033,0.0021816615480929613,0.0,-0.0010908307740464807
246,151609,0.09000000357627869,0.09000000357627869,-0.019999999552965164,-0.0021816615480929613,0.0010908307740464807,-0.0010908307740464807
246,152721,0.05999999865889549,0.03999999910593033,-0.029999999329447746,0.0021816615480929613,0.0010908307740464807,0.0
246,8253,0.05999999865889549,0.009999999776482582,-0.23999999463558197,0.0010908307740464807,-0.0010908307740464807,-0.0010908307740464807
246,9723,0.029999999329447746,0.0,-0.28999999165534973,0.0010908307740464807,0.0021816615480929613,-0.0010908307740464807
246,10696,0.029999999329447746,-0.009999999776482582,-0.27000001072883606,0.0010908307740464807,0.0021816615480929613,-0.003272492438554764
246,11668,0.03999999910593033,-0.019999999552965164,-0.27000001072883606,0.0010908307740464807,0.0,0.0
246,12738,0.029999999329447746,0.009999999776482582,-0.28999999165534973,0.0,-0.0021816615480929613,0.0021816615480929613
246,13708,0.03999999910593033,0.0,-0.28999999165534973,0.0,0.0,0.0
246,14681,0.0,0.0,-0.27000001072883606,-0.0010908307740464807,0.0,0.0
246,15621,0.03999999910593033,0.0,-0.27000001072883606,-0.0021816615480929613,-0.0021816615480929613,0.0021816615480929613
246,16724,0.03999999910593033,0.0,-0.30000001192092896,0.0,0.0,0.0021816615480929613
246,17694,0.019999999552965164,0.0,-0.28999999165534973,0.0010908307740464807,0.0021816615480929613,0.0
246,18662,0.05000000074505806,-0.009999999776482582,-0.2800000011920929,0.0,0.0,0.0
246,19733,0.05999999865889549,0.0,-0.27000001072883606,0.0010908307740464807,-0.0054541537538170815,0.0010908307740464807
246,20706,0.029999999329447746,0.029999999329447746,-0.28999999165534973,-0.0010908307740464807,0.0,0.0
246,21674,0.03999999910593033,0.019999999552965164,-0.25999999046325684,-0.0010908307740464807,0.0010908307740464807,-0.0010908307740464807
246,22619,0.03999999910593033,0.0,-0.25999999046325684,0.0,-0.0010908307740464807,0.0
246,23716,0.05000000074505806,-0.029999999329447746,-0.2800000011920929,0.0,-0.0010908307740464807,0.0
246,24689,0.05000000074505806,-0.009999999776482582,-0.28999999165534973,-0.0010908307740464807,0.0,0.0
246,25661,0.009999999776482582,0.0,-0.25999999046325684,0.0,0.0010908307740464807,0.0010908307740464807
246,26731,0.03999999910593033,0.0,-0.28999999165534973,0.0010908307740464807,0.0021816615480929613,0.0010908307740464807
246,27701,0.029999999329447746,0.0,-0.25999999046325684,0.0,-0.0010908307740464807,0.0010908307740464807
246,28674,0.029999999329447746,0.0,-0.3199999928474426,0.0,0.0,0.0021816615480929613
246,29644,0.05999999865889549,0.0,-0.2800000011920929,0.0010908307740464807,0.0,0.0010908307740464807
246,30715,0.029999999329447746,-0.009999999776482582,-0.2800000011920929,0.0,-0.0021816615480929613,0.0
246,31686,0.03999999910593033,0.0,-0.27000001072883606,-0.0010908307740464807,0.0,0.0
246,32659,0.029999999329447746,-0.009999999776482582,-0.2800000011920929,0.0021816615480929613,0.003272492438554764,-0.0021816615480929613
246,33726,0.03999999910593033,0.0,-0.3199999928474426,-0.0010908307740464807,0.0,0.0021816615480929613
246,34698,0.029999999329447746,0.0,-0.2800000011920929,0.0010908307740464807,0.0,-0.0010908307740464807
246,35670,0.029999999329447746,0.0,-0.28999999165534973,0.0010908307740464807,0.0010908307740464807,0.0
246,36741,0.05000000074505806,0.0,-0.25999999046325684,0.0,0.0010908307740464807,0.0010908307740464807
246,37716,0.03999999910593033,0.0,-0.28999999165534973,0.0,-0.0010908307740464807,0.0010908307740464807
246,38686,0.029999999329447746,-0.009999999776482582,-0.28999999165534973,-0.0010908307740464807,-0.0021816615480929613,0.0010908307740464807
246,39656,0.05999999865889549,0.0,-0.28999999165534973,0.0,0.0010908307740464807,-0.0021816615480929613
246,40727,0.03999999910593033,0.0,-0.25999999046325684,0.0010908307740464807,0.0010908307740464807,0.0010908307740464807
246,41695,0.029999999329447746,0.0,-0.2800000011920929,0.003272492438554764,0.0,0.0
246,42665,0.03999999910593033,0.0,-0.25,0.004363323096185923,-0.0021816615480929613,-0.0010908307740464807
246,43733,0.029999999329447746,0.0,-0.25,0.0010908307740464807,-0.0010908307740464807,0.0
246,44703,0.05000000074505806,-0.019999999552965164,-0.27000001072883606,0.0021816615480929613,0.0,-0.0021816615480929613
246,45675,0.03999999910593033,0.0,-0.25999999046325684,0.0,0.0010908307740464807,0.0010908307740464807
246,46647,0.07000000029802322,0.019999999552965164,-0.2800000011920929,-0.0010908307740464807,0.003272492438554764,-0.0010908307740464807
246,47716,0.05999999865889549,0.009999999776482582,-0.27000001072883606,0.0,-0.0021816615480929613,0.0
246,48687,0.029999999329447746,0.0,-0.28999999165534973,0.0,0.0,0.0
246,49658,0.05000000074505806,-0.009999999776482582,-0.28999999165534973,0.0010908307740464807,-0.0021816615480929613,0.0010908307740464807
246,50728,0.05000000074505806,0.0,-0.25,-0.0010908307740464807,0.0010908307740464807,-0.0010908307740464807
246,51698,0.03999999910593033,0.0,-0.25,0.0021816615480929613,0.0021816615480929613,-0.0010908307740464807
246,52668,0.05000000074505806,0.029999999329447746,-0.3100000023841858,0.0021816615480929613,0.0021816615480929613,-0.0010908307740464807
246,53738,0.05999999865889549,0.019999999552965164,-0.27000001072883606,0.0010908307740464807,-0.0010908307740464807,0.0
246,54709,0.05000000074505806,0.009999999776482582,-0.28999999165534973,-0.0021816615480929613,-0.0010908307740464807,0.0010908307740464807
246,55683,0.03999999910593033,-0.009999999776482582,-0.2800000011920929,-0.0021816615480929613,-0.0010908307740464807,0.0010908307740464807
246,56654,0.05000000074505806,0.009999999776482582,-0.2800000011920929,-0.0010908307740464807,-0.0010908307740464807,0.0
246,57729,0.019999999552965164,0.019999999552965164,-0.27000001072883606,0.0010908307740464807,0.0021816615480929613,-0.0010908307740464807
246,58700,0.05999999865889549,-0.009999999776482582,-0.2800000011920929,-0.0010908307740464807,0.0010908307740464807,-0.0010908307740464807
246,59670,0.05999999865889549,0.0,-0.3100000023841858,0.0,-0.004363323096185923,0.0
246,60629,0.029999999329447746,0.0,-0.27000001072883606,0.0021816615480929613,0.0,-0.0010908307740464807
246,61716,0.03999999910593033,0.0,-0.25999999046325684,-0.0021816615480929613,-0.0010908307740464807,-0.0010908307740464807
246,62686,0.05999999865889549,-0.009999999776482582,-0.28999999165534973,0.0010908307740464807,-0.0021816615480929613,0.0021816615480929613
246,63658,0.05999999865889549,0.0,-0.30000001192092896,-0.0010908307740464807,-0.0021816615480929613,0.0021816615480929613
246,64730,0.03999999910593033,0.0,-0.27000001072883606,0.0010908307740464807,-0.0010908307740464807,0.0010908307740464807
246,65699,0.05000000074505806,0.0,-0.2800000011920929,-0.0021816615480929613,0.0,-0.0010908307740464807
246,66670,0.019999999552965164,0.0,-0.28999999165534973,0.0010908307740464807,0.0021816615480929613,0.0
246,67741,0.05999999865889549,0.019999999552965164,-0.28999999165534973,-0.0010908307740464807,0.0,0.0021816615480929613
246,68710,0.03999999910593033,0.0,-0.25,-0.0021816615480929613,0.0,0.0010908307740464807
246,69682,0.05999999865889549,0.0,-0.3100000023841858,-0.0010908307740464807,0.0010908307740464807,0.0010908307740464807
246,70651,0.05000000074505806,0.019999999552965164,-0.2800000011920929,0.0,-0.0010908307740464807,0.0010908307740464807
246,71723,0.05999999865889549,0.0,-0.25999999046325684,0.0,0.0,0.0021816615480929613
246,72696,0.029999999329447746,0.0,-0.27000001072883606,0.0,-0.0010908307740464807,0.0
246,73670,0.05999999865889549,0.009999999776482582,-0.3199999928474426,0.0,0.0,0.0
246,74745,0.03999999910593033,0.0,-0.28999999165534973,0.0,0.0010908307740464807,0.0021816615480929613
246,75718,0.03999999910593033,0.029999999329447746,-0.30000001192092896,0.0021816615480929613,0.0010908307740464807,-0.0021816615480929613
246,76688,0.05999999865889549,0.009999999776482582,-0.30000001192092896,-0.0010908307740464807,-0.0021816615480929613,0.0
246,77658,0.05999999865889549,0.0,-0.3199999928474426,0.0,0.0021816615480929613,0.0010908307740464807
246,78728,0.05000000074505806,0.009999999776482582,-0.3199999928474426,0.0010908307740464807,0.0,0.0
246,79698,0.05000000074505806,0.0,-0.28999999165534973,-0.0010908307740464807,0.0,0.0
246,80669,0.05999999865889549,0.009999999776482582,-0.28999999165534973,0.0010908307740464807,0.0021816615480929613,0.003272492438554764
246,81741,0.03999999910593033,0.05999999865889549,-0.23999999463558197,0.0010908307740464807,-0.003272492438554764,0.0
246,82714,0.05000000074505806,0.0,-0.30000001192092896,-0.0010908307740464807,-0.0010908307740464807,0.0010908307740464807
246,83684,0.029999999329447746,0.009999999776482582,-0.27000001072883606,0.0,0.0010908307740464807,0.0010908307740464807
246,84624,0.05999999865889549,0.0,-0.3100000023841858,-0.003272492438554764,-0.0010908307740464807,-0.0010908307740464807
246,85724,0.05999999865889549,0.0,-0.28999999165534973,0.0,0.0,0.0010908307740464807
246,86696,0.03999999910593033,0.0,-0.2800000011920929,0.0021816615480929613,0.0010908307740464807,-0.0010908307740464807
246,87666,0.009999999776482582,-0.019999999552965164,-0.27000001072883606,-0.0010908307740464807,0.0010908307740464807,0.0
246,8557,0.009999999776482582,-0.05000000074505806,-0.28999999165534973,0.0,0.0,0.0010908307740464807
246,9729,0.029999999329447746,-0.03999999910593033,-0.25999999046325684,-0.0010908307740464807,-0.0010908307740464807,0.0
246,10701,0.0,-0.009999999776482582,-0.28999999165534973,-0.0010908307740464807,0.0,0.0010908307740464807
246,11670,0.009999999776482582,-0.03999999910593033,-0.30000001192092896,0.0,0.0,0.0
246,12738,0.009999999776482582,-0.029999999329447746,-0.2800000011920929,0.0,-0.0010908307740464807,0.0010908307740464807
246,13707,0.029999999329447746,-0.029999999329447746,-0.28999999165534973,0.0,0.0010908307740464807,-0.0010908307740464807
246,14681,0.029999999329447746,-0.019999999552965164,-0.28999999165534973,-0.003272492438554764,0.0,-0.0010908307740464807
246,15654,0.029999999329447746,-0.009999999776482582,-0.28999999165534973,-0.0021816615480929613,0.003272492438554764,0.0010908307740464807
246,16730,0.019999999552965164,-0.03999999910593033,-0.25999999046325684,0.0,-0.0021816615480929613,-0.0010908307740464807
246,17698,0.019999999552965164,-0.029999999329447746,-0.25999999046325684,0.0,0.0021816615480929613,0.0010908307740464807
246,18672,0.009999999776482582,-0.009999999776482582,-0.2800000011920929,-0.0010908307740464807,0.0,0.0
246,19644,0.019999999552965164,-0.019999999552965164,-0.30000001192092896,0.0010908307740464807,0.0010908307740464807,0.0
246,20719,0.019999999552965164,0.0,-0.25999999046325684,0.0021816615480929613,0.0,0.0021816615480929613
246,21694,0.0,-0.019999999552965164,-0.25999999046325684,0.0021816615480929613,0.0,0.0
246,22663,0.009999999776482582,-0.019999999552965164,-0.27000001072883606,-0.0010908307740464807,0.004363323096185923,-0.0010908307740464807
246,23733,0.029999999329447746,-0.05999999865889549,-0.2800000011920929,0.0010908307740464807,0.0,0.0010908307740464807
246,24704,0.019999999552965164,-0.03999999910593033,-0.2800000011920929,-0.0021816615480929613,0.0021816615480929613,0.0010908307740464807
246,25673,0.019999999552965164,-0.03999999910593033,-0.28999999165534973,-0.0010908307740464807,0.0,0.0010908307740464807
246,26646,0.029999999329447746,-0.03999999910593033,-0.28999999165534973,0.0,-0.0010908307740464807,0.0021816615480929613
246,27718,0.009999999776482582,-0.019999999552965164,-0.30000001192092896,0.0010908307740464807,-0.003272492438554764,0.0021816615480929613
246,28686,0.019999999552965164,-0.009999999776482582,-0.25999999046325684,0.0,-0.0021816615480929613,0.0021816615480929613
246,29655,0.03999999910593033,-0.029999999329447746,-0.3100000023841858,0.0010908307740464807,0.0010908307740464807,-0.0010908307740464807
246,30728,0.05000000074505806,-0.029999999329447746,-0.27000001072883606,0.0010908307740464807,0.0021816615480929613,0.003272492438554764
246,31701,0.009999999776482582,-0.029999999329447746,-0.2800000011920929,0.0,0.0021816615480929613,-0.0010908307740464807
246,32672,0.019999999552965164,-0.03999999910593033,-0.28999999165534973,0.0010908307740464807,-0.0010908307740464807,0.0010908307740464807
246,33741,0.019999999552965164,-0.009999999776482582,-0.30000001192092896,0.0010908307740464807,0.0010908307740464807,0.0
246,34712,0.009999999776482582,-0.019999999552965164,-0.25999999046325684,-0.0021816615480929613,0.0010908307740464807,0.0
246,35681,0.03999999910593033,-0.019999999552965164,-0.27000001072883606,-0.0010908307740464807,-0.0010908307740464807,0.003272492438554764
246,36654,0.029999999329447746,-0.019999999552965164,-0.2800000011920929,0.0010908307740464807,0.0,0.0
246,37724,0.03999999910593033,-0.029999999329447746,-0.28999999165534973,0.0010908307740464807,0.0010908307740464807,0.0010908307740464807
246,38694,0.019999999552965164,-0.009999999776482582,-0.27000001072883606,0.0,0.0010908307740464807,-0.0010908307740464807
246,39666,0.029999999329447746,0.0,-0.25999999046325684,0.0,0.0,0.0
246,40736,0.019999999552965164,-0.009999999776482582,-0.2800000011920929,0.0,-0.0021816615480929613,-0.004363323096185923
246,41707,0.019999999552965164,-0.009999999776482582,-0.3100000023841858,0.0,0.0021816615480929613,-0.0021816615480929613
246,42679,0.03999999910593033,-0.009999999776482582,-0.30000001192092896,0.0,0.0,-0.0021816615480929613
246,43648,0.019999999552965164,0.0,-0.25999999046325684,0.0010908307740464807,0.003272492438554764,-0.0010908307740464807
246,44719,0.029999999329447746,-0.009999999776482582,-0.2800000011920929,-0.0010908307740464807,0.003272492438554764,0.0
246,45691,0.019999999552965164,-0.009999999776482582,-0.27000001072883606,0.0,0.0010908307740464807,0.0
246,46662,0.03999999910593033,-0.029999999329447746,-0.28999999165534973,0.0,-0.0010908307740464807,-0.0010908307740464807
246,47738,0.029999999329447746,0.0,-0.2800000011920929,-0.0021816615480929613,-0.0010908307740464807,-0.0010908307740464807
246,48711,0.03999999910593033,-0.019999999552965164,-0.3100000023841858,0.0,0.0010908307740464807,0.0
246,8547,0.009999999776482582,-0.019999999552965164,-0.28999999165534973,-0.0010908307740464807,0.0,-0.0010908307740464807
246,9721,0.05000000074505806,-0.019999999552965164,-0.27000001072883606,-0.0010908307740464807,-0.0010908307740464807,0.0
246,10693,0.029999999329447746,-0.019999999552965164,-0.30000001192092896,0.0,-0.0010908307740464807,0.0
246,11665,0.029999999329447746,-0.009999999776482582,-0.25,0.0010908307740464807,0.0010908307740464807,0.0021816615480929613
246,12733,0.019999999552965164,0.0,-0.2800000011920929,-0.0010908307740464807,-0.0010908307740464807,0.0010908307740464807
246,13708,0.029999999329447746,0.0,-0.30000001192092896,-0.0010908307740464807,-0.0010908307740464807,-0.0021816615480929613
246,14676,0.03999999910593033,0.0,-0.28999999165534973,-0.003272492438554764,0.0,0.0
246,15636,0.019999999552965164,-0.009999999776482582,-0.3100000023841858,0.0,0.0010908307740464807,0.0010908307740464807
246,16723,0.009999999776482582,0.0,-0.28999999165534973,-0.0010908307740464807,0.0,-0.0021816615480929613
246,17695,0.029999999329447746,-0.009999999776482582,-0.27000001072883606,0.0010908307740464807,0.0010908307740464807,-0.0010908307740464807
246,18665,0.029999999329447746,-0.009999999776482582,-0.2800000011920929,-0.0021816615480929613,0.0,0.0
246,19736,0.019999999552965164,0.0,-0.27000001072883606,-0.0021816615480929613,0.0,0.0010908307740464807
246,20711,0.03999999910593033,0.0,-0.27000001072883606,0.0,0.0021816615480929613,0.0
246,21681,0.0,-0.009999999776482582,-0.2800000011920929,0.0021816615480929613,-0.0010908307740464807,-0.0021816615480929613
246,22655,0.019999999552965164,0.0,-0.30000001192092896,0.0010908307740464807,0.0,-0.0010908307740464807
246,23724,0.009999999776482582,-0.019999999552965164,-0.30000001192092896,0.0010908307740464807,-0.0010908307740464807,-0.0010908307740464807
246,24696,0.05999999865889549,0.0,-0.30000001192092896,0.0021816615480929613,0.0021816615480929613,0.0
246,25671,0.019999999552965164,0.0,-0.28999999165534973,0.0,0.0,-0.0010908307740464807
246,26646,0.03999999910593033,0.0,-0.23999999463558197,0.0,0.0010908307740464807,-0.0010908307740464807
246,27714,0.029999999329447746,-0.029999999329447746,-0.30000001192092896,0.0,-0.0010908307740464807,0.0
246,28684,0.019999999552965164,-0.019999999552965164,-0.27000001072883606,-0.0010908307740464807,-0.0010908307740464807,-0.0010908307740464807
246,29657,0.029999999329447746,-0.009999999776482582,-0.25999999046325684,0.0,0.0021816615480929613,-0.0010908307740464807
246,30729,0.029999999329447746,-0.009999999776482582,-0.28999999165534973,0.0,-0.0021816615480929613,-0.0010908307740464807
246,31701,0.029999999329447746,-0.009999999776482582,-0.30000001192092896,0.0010908307740464807,0.0,0.0010908307740464807
246,32675,0.009999999776482582,-0.009999999776482582,-0.2800000011920929,0.0,0.0010908307740464807,0.0
246,33649,0.019999999552965164,-0.019999999552965164,-0.30000001192092896,0.0010908307740464807,0.0021816615480929613,0.0010908307740464807
246,34721,0.019999999552965164,0.0,-0.2800000011920929,0.0010908307740464807,0.0021816615480929613,0.0010908307740464807
246,35696,0.019999999552965164,-0.009999999776482582,-0.3100000023841858,0.0010908307740464807,0.0010908307740464807,-0.003272492438554764
246,36669,0.009999999776482582,0.0,-0.30000001192092896,-0.0010908307740464807,0.0,-0.0010908307740464807
246,37739,0.019999999552965164,-0.019999999552965164,-0.3199999928474426,0.0,0.0010908307740464807,-0.0010908307740464807
246,38708,0.029999999329447746,0.0,-0.30000001192092896,-0.0010908307740464807,0.0,0.0010908307740464807
246,39681,0.019999999552965164,0.0,-0.27000001072883606,0.0010908307740464807,0.0021816615480929613,-0.0010908307740464807
246,40654,0.03999999910593033,-0.009999999776482582,-0.2800000011920929,0.0,0.0021816615480929613,0.0010908307740464807
246,41724,0.03999999910593033,0.0,-0.25999999046325684,0.0,0.0,-0.0010908307740464807
246,42693,0.029999999329447746,0.0,-0.30000001192092896,0.003272492438554764,0.0010908307740464807,0.0
246,43664,0.05000000074505806,0.0,-0.28999999165534973,0.0010908307740464807,0.0021816615480929613,-0.0010908307740464807
246,44733,0.019999999552965164,-0.019999999552965164,-0.27000001072883606,0.0010908307740464807,0.0,0.0
246,45703,0.029999999329447746,-0.009999999776482582,-0.27000001072883606,0.0,0.0,-0.0010908307740464807
246,46674,0.05999999865889549,-0.03999999910593033,-0.2800000011920929,-0.0010908307740464807,0.0010908307740464807,0.0021816615480929613
246,47646,0.019999999552965164,0.0,-0.28999999165534973,0.0010908307740464807,-0.0010908307740464807,0.0
246,48718,0.029999999329447746,-0.009999999776482582,-0.27000001072883606,-0.0010908307740464807,-0.004363323096185923,0.0
246,49689,0.019999999552965164,-0.009999999776482582,-0.27000001072883606,0.0,0.0,0.0010908307740464807
246,50656,0.05000000074505806,-0.009999999776482582,-0.3100000023841858,0.0,0.0010908307740464807,0.0
246,51724,0.019999999552965164,0.0,-0.25999999046325684,0.0010908307740464807,0.0,0.0021816615480929613
246,52693,0.029999999329447746,0.0,-0.25,0.0,-0.0010908307740464807,-0.0010908307740464807
246,53662,0.03999999910593033,0.029999999329447746,-0.28999999165534973,0.0,-0.003272492438554764,0.0010908307740464807
246,54734,0.019999999552965164,0.0,-0.28999999165534973,0.0021816615480929613,-0.0010908307740464807,0.0010908307740464807
246,8565,0.03999999910593033,0.0,-0.28999999165534973,0.0,0.0021816615480929613,0.0
246,9736,0.03999999910593033,-0.009999999776482582,-0.2800000011920929,-0.0021816615480929613,-0.004363323096185923,0.0021816615480929613
246,10709,0.03999999910593033,0.029999999329447746,-0.30000001192092896,0.0010908307740464807,0.0010908307740464807,0.0010908307740464807
246,11680,0.029999999329447746,0.0,-0.27000001072883606,-0.0010908307740464807,-0.0010908307740464807,-0.0010908307740464807
246,12648,0.009999999776482582,0.029999999329447746,-0.2800000011920929,0.0,0.0010908307740464807,-0.0010908307740464807
246,13719,0.009999999776482582,0.0,-0.27000001072883606,0.0010908307740464807,0.0,-0.0010908307740464807
246,14692,0.03999999910593033,0.0,-0.2800000011920929,0.0010908307740464807,0.0,-0.0010908307740464807
246,15664,0.009999999776482582,-0.019999999552965164,-0.33000001311302185,0.0010908307740464807,0.003272492438554764,0.0010908307740464807
246,16736,0.05000000074505806,0.019999999552965164,-0.30000001192092896,-0.0021816615480929613,0.0,0.0021816615480929613
246,17709,0.019999999552965164,-0.019999999552965164,-0.3700000047683716,-0.0010908307740464807,0.0010908307740464807,0.0021816615480929613
246,18680,0.029999999329447746,0.0,-0.28999999165534973,-0.0021816615480929613,0.003272492438554764,0.0010908307740464807
246,19652,0.019999999552965164,0.0,-0.2800000011920929,0.0010908307740464807,0.0021816615480929613,0.0
246,20723,0.019999999552965164,-0.019999999552965164,-0.30000001192092896,-0.0010908307740464807,0.0021816615480929613,0.0
246,21693,0.019999999552965164,0.0,-0.25999999046325684,0.0,0.0,0.0010908307740464807
246,22662,0.009999999776482582,0.009999999776482582,-0.30000001192092896,0.0021816615480929613,0.0,-0.0010908307740464807
246,23730,0.009999999776482582,0.0,-0.25999999046325684,-0.0021816615480929613,0.0,-0.0010908307740464807
246,24701,0.009999999776482582,-0.019999999552965164,-0.2800000011920929,0.0010908307740464807,-0.0010908307740464807,0.003272492438554764
246,25673,0.019999999552965164,0.0,-0.28999999165534973,0.0,0.0010908307740464807,0.0010908307740464807
246,26643,0.05000000074505806,0.0,-0.28999999165534973,-0.0010908307740464807,0.0,-0.0021816615480929613
246,27713,0.029999999329447746,-0.009999999776482582,-0.2800000011920929,0.0,0.0,-0.0021816615480929613
246,28684,0.029999999329447746,0.029999999329447746,-0.2800000011920929,0.0010908307740464807,0.0,-0.0010908307740464807
246,29656,0.029999999329447746,0.0,-0.2800000011920929,0.0010908307740464807,-0.0010908307740464807,-0.0021816615480929613
246,30728,0.019999999552965164,-0.009999999776482582,-0.30000001192092896,0.0,-0.0010908307740464807,0.0021816615480929613
246,31698,0.0,0.0,-0.3700000047683716,-0.0010908307740464807,0.0010908307740464807,-0.004363323096185923
246,32668,0.0,0.029999999329447746,-0.4000000059604645,0.0,0.0010908307740464807,0.0010908307740464807
246,33738,0.03999999910593033,0.009999999776482582,-0.3199999928474426,0.0021816615480929613,-0.0010908307740464807,-0.0021816615480929613
246,11566,0.019999999552965164,0.0,-0.28999999165534973,0.0,0.0,-0.0021816615480929613
246,12741,0.019999999552965164,0.0,-0.28999999165534973,-0.0010908307740464807,-0.0010908307740464807,0.0021816615480929613
246,13716,0.03999999910593033,-0.029999999329447746,-0.2800000011920929,-0.0010908307740464807,0.003272492438554764,-0.0010908307740464807
246,14686,0.0,-0.019999999552965164,-0.27000001072883606,0.0,-0.0010908307740464807,-0.0021816615480929613
246,15654,0.029999999329447746,-0.009999999776482582,-0.2800000011920929,0.0,-0.0010908307740464807,-0.0010908307740464807
246,16723,0.03999999910593033,0.009999999776482582,-0.2800000011920929,0.0010908307740464807,0.0010908307740464807,0.0010908307740464807
246,17697,0.029999999329447746,-0.009999999776482582,-0.2800000011920929,-0.0010908307740464807,0.0010908307740464807,0.0
246,18668,0.05999999865889549,0.0,-0.27000001072883606,0.0,0.0010908307740464807,0.003272492438554764
246,19642,0.029999999329447746,-0.009999999776482582,-0.27000001072883606,0.0010908307740464807,0.0,0.0010908307740464807
246,20711,0.019999999552965164,0.0,-0.28999999165534973,0.0,-0.0010908307740464807,0.0010908307740464807
246,21684,0.029999999329447746,-0.009999999776482582,-0.30000001192092896,-0.0010908307740464807,0.0010908307740464807,0.0
246,22657,0.03999999910593033,-0.009999999776482582,-0.25999999046325684,0.0010908307740464807,-0.0010908307740464807,-0.0010908307740464807
246,23731,0.03999999910593033,0.009999999776482582,-0.27000001072883606,-0.0010908307740464807,0.0,-0.0010908307740464807
246,24704,0.019999999552965164,0.009999999776482582,-0.28999999165534973,0.0010908307740464807,0.0010908307740464807,0.0010908307740464807
246,25674,0.03999999910593033,0.0,-0.30000001192092896,0.0010908307740464807,0.0010908307740464807,0.0010908307740464807
246,26644,0.019999999552965164,-0.019999999552965164,-0.30000001192092896,0.0,0.0,0.0010908307740464807
246,27715,0.029999999329447746,-0.009999999776482582,-0.2800000011920929,-0.0010908307740464807,0.0,-0.0021816615480929613
246,28689,0.03999999910593033,0.0,-0.27000001072883606,0.0,-0.0021816615480929613,0.0010908307740464807
246,29662,0.009999999776482582,0.0,-0.28999999165534973,0.0,-0.0010908307740464807,-0.0010908307740464807
246,30738,0.03999999910593033,-0.009999999776482582,-0.27000001072883606,0.0010908307740464807,0.0,0.0
246,31713,0.03999999910593033,-0.009999999776482582,-0.27000001072883606,-0.0010908307740464807,0.0021816615480929613,0.0010908307740464807
246,32688,0.03999999910593033,0.009999999776482582,-0.25999999046325684,-0.0021816615480929613,-0.0021816615480929613,0.0
246,33661,0.029999999329447746,0.009999999776482582,-0.3100000023841858,-0.0021816615480929613,0.0,0.0
246,34738,0.05000000074505806,0.0,-0.27000001072883606,0.0,0.003272492438554764,0.0021816615480929613
246,35713,0.03999999910593033,0.009999999776482582,-0.2800000011920929,0.0,-0.003272492438554764,0.0
246,36686,0.029999999329447746,0.0,-0.2800000011920929,0.0010908307740464807,0.0,-0.0010908307740464807
246,37662,0.03999999910593033,0.0,-0.28999999165534973,0.0010908307740464807,0.0010908307740464807,0.0010908307740464807
246,38735,0.03999999910593033,0.0,-0.27000001072883606,0.0,0.0010908307740464807,-0.0021816615480929613
246,39709,0.029999999329447746,-0.009999999776482582,-0.3100000023841858,0.0,0.0021816615480929613,0.0010908307740464807
246,40685,0.03999999910593033,0.0,-0.28999999165534973,0.0010908307740464807,0.0021816615480929613,0.0
246,41658,0.03999999910593033,0.0,-0.2800000011920929,0.0,-0.0021816615480929613,0.0010908307740464807
246,42727,0.029999999329447746,0.009999999776482582,-0.2800000011920929,0.0021816615480929613,0.0010908307740464807,-0.0010908307740464807
246,43697,0.05000000074505806,-0.009999999776482582,-0.23999999463558197,0.0010908307740464807,0.0010908307740464807,-0.0010908307740464807
246,44667,0.019999999552965164,0.0,-0.27000001072883606,0.0,-0.0021816615480929613,0.0
246,45591,0.029999999329447746,0.0,-0.27000001072883606,0.0010908307740464807,0.0010908307740464807,0.0
246,46708,0.029999999329447746,0.009999999776482582,-0.2800000011920929,-0.0010908307740464807,0.0010908307740464807,0.0
246,47678,0.03999999910593033,-0.009999999776482582,-0.3100000023841858,0.0010908307740464807,0.0,-0.0021816615480929613
246,48652,0.05000000074505806,0.029999999329447746,-0.2800000011920929,0.0010908307740464807,0.0010908307740464807,-0.0021816615480929613
246,49719,0.03999999910593033,0.009999999776482582,-0.30000001192092896,-0.0021816615480929613,-0.0021816615480929613,0.0010908307740464807
246,50689,0.029999999329447746,0.0,-0.28999999165534973,0.0,-0.0010908307740464807,-0.0010908307740464807
246,51658,0.05999999865889549,0.019999999552965164,-0.2199999988079071,0.003272492438554764,0.0021816615480929613,0.0021816615480929613
246,52731,0.05000000074505806,0.0,-0.27000001072883606,0.0,0.0,0.0
246,53699,0.05000000074505806,0.009999999776482582,-0.2800000011920929,0.0021816615480929613,0.0021816615480929613,-0.0010908307740464807
246,54669,0.03999999910593033,0.009999999776482582,-0.30000001192092896,-0.0010908307740464807,0.0010908307740464807,0.0
246,55643,0.03999999910593033,0.009999999776482582,-0.25999999046325684,-0.0021816615480929613,0.0,0.0021816615480929613
246,56714,0.05999999865889549,0.0,-0.3100000023841858,0.0,-0.004363323096185923,-0.0010908307740464807
246,57684,0.03999999910593033,0.009999999776482582,-0.2800000011920929,-0.0010908307740464807,-0.0010908307740464807,0.0010908307740464807
246,58656,0.05000000074505806,-0.009999999776482582,-0.25999999046325684,-0.0010908307740464807,0.0010908307740464807,0.0
246,59730,0.029999999329447746,0.0,-0.3199999928474426,0.0010908307740464807,-0.0010908307740464807,0.0
246,60699,0.07000000029802322,-0.029999999329447746,-0.30000001192092896,-0.0010908307740464807,-0.0021816615480929613,0.0010908307740464807
246,61668,0.03999999910593033,0.009999999776482582,-0.2800000011920929,0.0,-0.003272492438554764,0.0021816615480929613
246,62738,0.03999999910593033,0.0,-0.25999999046325684,0.0010908307740464807,0.0010908307740464807,-0.0010908307740464807
246,63711,0.03999999910593033,0.0,-0.2800000011920929,-0.0010908307740464807,-0.0021816615480929613,0.0010908307740464807
246,64684,0.05000000074505806,0.0,-0.27000001072883606,0.0,0.0021816615480929613,-0.0021816615480929613
246,65656,0.029999999329447746,-0.029999999329447746,-0.30000001192092896,0.0021816615480929613,0.0010908307740464807,-0.0010908307740464807
246,66726,0.019999999552965164,-0.009999999776482582,-0.28999999165534973,0.0,0.0,0.0
246,67697,0.03999999910593033,-0.009999999776482582,-0.2800000011920929,0.0,0.0010908307740464807,0.0
246,68665,0.03999999910593033,0.0,-0.28999999165534973,-0.0010908307740464807,0.0,0.0010908307740464807
246,69738,0.03999999910593033,-0.009999999776482582,-0.27000001072883606,0.0010908307740464807,-0.0010908307740464807,-0.0010908307740464807
246,70708,0.05000000074505806,0.009999999776482582,-0.2800000011920929,0.0010908307740464807,-0.0010908307740464807,0.0
246,71678,0.03999999910593033,0.0,-0.27000001072883606,0.0010908307740464807,0.0021816615480929613,-0.0021816615480929613
246,72649,0.03999999910593033,0.0,-0.2800000011920929,0.0021816615480929613,0.0,-0.0021816615480929613
246,73724,0.029999999329447746,-0.009999999776482582,-0.25999999046325684,0.0010908307740464807,-0.0021816615480929613,0.0021816615480929613
246,74692,0.029999999329447746,0.0,-0.25999999046325684,-0.0010908307740464807,0.0010908307740464807,-0.0021816615480929613
246,75661,0.05000000074505806,-0.019999999552965164,-0.2800000011920929,0.0010908307740464807,0.0010908307740464807,0.0
246,76734,0.03999999910593033,0.0,-0.2800000011920929,0.0,0.0021816615480929613,-0.0010908307740464807
246,77708,0.03999999910593033,-0.009999999776482582,-0.27000001072883606,-0.0021816615480929613,0.0010908307740464807,0.0
246,78684,0.05999999865889549,0.0,-0.3100000023841858,-0.0010908307740464807,0.0,0.0
246,79656,0.03999999910593033,-0.009999999776482582,-0.25999999046325684,0.0010908307740464807,-0.0010908307740464807,-0.0021816615480929613
246,80731,0.029999999329447746,0.009999999776482582,-0.28999999165534973,-0.0010908307740464807,-0.0021816615480929613,-0.0010908307740464807
246,81703,0.05000000074505806,0.019999999552965164,-0.28999999165534973,0.0,0.0010908307740464807,0.0
246,82673,0.05000000074505806,0.019999999552965164,-0.2800000011920929,-0.0010908307740464807,0.0,0.0010908307740464807
246,83743,0.03999999910593033,-0.009999999776482582,-0.2800000011920929,0.0,0.0,0.0010908307740464807
246,84715,0.03999999910593033,0.0,-0.27000001072883606,0.0,-0.003272492438554764,-0.0010908307740464807
246,85685,0.03999999910593033,0.0,-0.3100000023841858,-0.0010908307740464807,0.0,0.0010908307740464807
246,86654,0.03999999910593033,0.009999999776482582,-0.27000001072883606,0.003272492438554764,-0.0010908307740464807,0.0010908307740464807
246,87724,0.05999999865889549,0.009999999776482582,-0.28999999165534973,0.0,-0.0010908307740464807,0.0021816615480929613
246,88697,0.05000000074505806,-0.009999999776482582,-0.25,0.0010908307740464807,0.0,0.0
246,89669,0.05000000074505806,0.0,-0.27000001072883606,0.0,0.0010908307740464807,0.0
246,90644,0.05999999865889549,0.009999999776482582,-0.27000001072883606,0.0,0.0010908307740464807,0.0
246,91714,0.03999999910593033,0.0,-0.2800000011920929,-0.0010908307740464807,0.0021816615480929613,0.0
246,92687,0.05999999865889549,0.0,-0.25999999046325684,0.0,-0.0010908307740464807,0.0
246,93657,0.03999999910593033,0.009999999776482582,-0.25,0.0,0.0010908307740464807,-0.0010908307740464807
246,94732,0.05999999865889549,0.0,-0.27000001072883606,-0.0010908307740464807,0.0,-0.003272492438554764
246,95704,0.03999999910593033,-0.009999999776482582,-0.28999999165534973,0.0,0.0010908307740464807,-0.0010908307740464807
246,96678,0.03999999910593033,0.0,-0.30000001192092896,-0.0010908307740464807,0.0010908307740464807,-0.0010908307740464807
246,97648,0.07000000029802322,0.0,-0.25999999046325684,-0.0010908307740464807,0.0021816615480929613,0.0
246,98721,0.05000000074505806,-0.009999999776482582,-0.27000001072883606,0.0010908307740464807,-0.0010908307740464807,0.0
246,99693,0.05000000074505806,0.019999999552965164,-0.30000001192092896,0.0,0.0021816615480929613,-0.0010908307740464807
246,100666,0.05000000074505806,0.009999999776482582,-0.27000001072883606,0.0,0.0010908307740464807,0.0
246,101615,0.03999999910593033,0.0,-0.2800000011920929,0.0,0.0010908307740464807,0.0
246,102711,0.05000000074505806,0.0,-0.25999999046325684,0.0021816615480929613,-0.0010908307740464807,0.0021816615480929613
246,103683,0.05000000074505806,0.05000000074505806,-0.27000001072883606,0.0010908307740464807,0.0010908307740464807,-0.0010908307740464807
246,104656,0.07000000029802322,0.019999999552965164,-0.27000001072883606,-0.0010908307740464807,0.0021816615480929613,-0.0021816615480929613
246,105729,0.03999999910593033,0.0,-0.2199999988079071,-0.0010908307740464807,0.0,0.0
246,106703,0.05000000074505806,0.019999999552965164,-0.25999999046325684,0.0,-0.0010908307740464807,-0.0021816615480929613
246,107674,0.05000000074505806,0.019999999552965164,-0.27000001072883606,0.0,-0.0010908307740464807,0.0021816615480929613
246,108635,0.05000000074505806,0.029999999329447746,-0.27000001072883606,-0.0010908307740464807,0.0021816615480929613,0.0
246,109717,0.05999999865889549,0.019999999552965164,-0.23999999463558197,0.0,0.0010908307740464807,0.0010908307740464807
246,110689,0.029999999329447746,0.019999999552965164,-0.30000001192092896,-0.0010908307740464807,0.0021816615480929613,0.0010908307740464807
246,111661,0.07000000029802322,0.029999999329447746,-0.2800000011920929,0.0021816615480929613,0.0,-0.0010908307740464807
246,112733,0.05000000074505806,0.009999999776482582,-0.2800000011920929,-0.0021816615480929613,0.0010908307740464807,0.0
246,113705,0.03999999910593033,0.0,-0.2800000011920929,-0.0010908307740464807,-0.0010908307740464807,0.0
246,114673,0.05000000074505806,0.0,-0.25999999046325684,-0.0010908307740464807,-0.0010908307740464807,-0.0010908307740464807
246,115742,0.05000000074505806,0.009999999776482582,-0.2800000011920929,0.0,0.0,0.0
246,116714,0.05999999865889549,0.019999999552965164,-0.27000001072883606,0.0,0.0021816615480929613,0.0010908307740464807
246,117686,0.03999999910593033,0.009999999776482582,-0.2800000011920929,-0.0021816615480929613,-0.0021816615480929613,-0.0010908307740464807
246,118653,0.05000000074505806,0.05000000074505806,-0.30000001192092896,-0.0021816615480929613,0.004363323096185923,-0.0010908307740464807
246,119724,0.05000000074505806,0.009999999776482582,-0.28999999165534973,0.0021816615480929613,0.0010908307740464807,0.0
246,120698,0.05999999865889549,0.0,-0.25999999046325684,0.0010908307740464807,0.0,-0.0021816615480929613
246,121666,0.03999999910593033,0.0,-0.2800000011920929,0.0,-0.003272492438554764,0.0
246,122738,0.05000000074505806,0.029999999329447746,-0.33000001311302185,0.0,0.0021816615480929613,-0.003272492438554764
246,123708,0.05999999865889549,0.0,-0.28999999165534973,0.0,0.0010908307740464807,0.0021816615480929613
246,124678,0.03999999910593033,0.03999999910593033,-0.27000001072883606,0.0,0.0010908307740464807,0.0010908307740464807
246,125647,0.05000000074505806,0.0,-0.28999999165534973,-0.003272492438554764,-0.0010908307740464807,-0.0010908307740464807
246,126716,0.03999999910593033,0.0,-0.28999999165534973,0.0,0.0021816615480929613,-0.0010908307740464807
246,127690,0.05000000074505806,0.019999999552965164,-0.27000001072883606,-0.0021816615480929613,-0.0021816615480929613,0.0021816615480929613
246,128658,0.05999999865889549,0.019999999552965164,-0.27000001072883606,0.0021816615480929613,0.0,0.0
246,129731,0.05000000074505806,0.019999999552965164,-0.23999999463558197,-0.0021816615480929613,-0.0010908307740464807,-0.0010908307740464807
246,130701,0.05000000074505806,0.009999999776482582,-0.25999999046325684,0.0,0.0,0.0010908307740464807
246,131672,0.03999999910593033,-0.009999999776482582,-0.2800000011920929,0.0,0.0,0.0
246,132642,0.05000000074505806,0.0,-0.23999999463558197,0.0010908307740464807,0.0010908307740464807,0.0
246,133711,0.05000000074505806,0.009999999776482582,-0.30000001192092896,-0.0010908307740464807,-0.0021816615480929613,0.0010908307740464807
246,134679,0.05999999865889549,0.009999999776482582,-0.28999999165534973,-0.0010908307740464807,0.0,-0.0010908307740464807
246,135646,0.05999999865889549,0.0,-0.3100000023841858,0.0021816615480929613,0.0010908307740464807,-0.0010908307740464807
246,136718,0.07000000029802322,0.009999999776482582,-0.2800000011920929,0.0,-0.004363323096185923,0.0
246,137691,0.05999999865889549,0.029999999329447746,-0.2800000011920929,0.0,0.0010908307740464807,-0.0010908307740464807
246,138662,0.05000000074505806,0.029999999329447746,-0.3499999940395355,0.0010908307740464807,-0.003272492438554764,-0.0010908307740464807
246,139730,0.05000000074505806,0.0,-0.2199999988079071,0.0010908307740464807,-0.0010908307740464807,0.0021816615480929613
246,140701,0.05000000074505806,0.0,-0.3100000023841858,0.0010908307740464807,-0.0010908307740464807,-0.0010908307740464807
246,141670,0.03999999910593033,0.0,-0.25999999046325684,0.0021816615480929613,0.0021816615480929613,-0.0021816615480929613
246,142738,0.05999999865889549,0.009999999776482582,-0.28999999165534973,0.0021816615480929613,-0.0010908307740464807,0.0021816615480929613
246,143709,0.05000000074505806,0.019999999552965164,-0.2800000011920929,0.0,0.0,0.0010908307740464807
246,144682,0.05000000074505806,0.03999999910593033,-0.30000001192092896,0.0,0.0,0.0010908307740464807
246,145653,0.07000000029802322,0.019999999552965164,-0.3100000023841858,0.0,-0.0021816615480929613,0.0021816615480929613
246,146728,0.05000000074505806,0.009999999776482582,-0.2800000011920929,0.0,0.003272492438554764,0.0010908307740464807
246,147699,0.029999999329447746,0.029999999329447746,-0.25999999046325684,0.0,0.0010908307740464807,0.0
246,148670,0.05000000074505806,0.029999999329447746,-0.25999999046325684,0.0,-0.0010908307740464807,-0.0010908307740464807
246,149742,0.05999999865889549,-0.019999999552965164,-0.27000001072883606,0.0010908307740464807,0.0021816615480929613,0.0021816615480929613
246,150714,0.05000000074505806,0.009999999776482582,-0.2800000011920929,0.0010908307740464807,-0.0021816615480929613,-0.0010908307740464807
246,151684,0.05000000074505806,-0.009999999776482582,-0.27000001072883606,0.0010908307740464807,0.0,0.0010908307740464807
246,152654,0.07000000029802322,-0.07000000029802322,-0.30000001192092896,-0.0010908307740464807,0.0,0.0
246,153726,0.05000000074505806,0.0,-0.27000001072883606,0.0,0.0,-0.003272492438554764
246,154699,0.03999999910593033,0.029999999329447746,-0.30000001192092896,0.0010908307740464807,0.0010908307740464807,-0.0010908307740464807
246,155673,0.03999999910593033,0.03999999910593033,-0.2800000011920929,-0.0021816615480929613,-0.0010908307740464807,-0.0010908307740464807
246,156743,0.029999999329447746,0.029999999329447746,-0.28999999165534973,0.0010908307740464807,0.0010908307740464807,0.0
246,157715,0.07999999821186066,0.0,-0.2800000011920929,0.0,0.0010908307740464807,-0.0010908307740464807
246,158684,0.07000000029802322,0.07000000029802322,-0.2800000011920929,0.0010908307740464807,0.0010908307740464807,0.0021816615480929613
246,159657,0.07000000029802322,0.09000000357627869,-0.2800000011920929,0.0,0.0,-0.0021816615480929613
246,160728,0.05000000074505806,0.03999999910593033,-0.27000001072883606,0.0,0.0,0.0010908307740464807
246,161699,0.07000000029802322,0.009999999776482582,-0.2800000011920929,0.0,0.0,-0.0021816615480929613
246,162671,0.07999999821186066,0.019999999552965164,-0.28999999165534973,-0.0010908307740464807,0.0010908307740464807,0.0010908307740464807
246,163742,0.05999999865889549,0.0,-0.2800000011920929,-0.0010908307740464807,0.0010908307740464807,-0.0010908307740464807
246,164715,0.05000000074505806,0.019999999552965164,-0.28999999165534973,0.0,-0.0021816615480929613,0.003272492438554764
246,165684,0.05999999865889549,0.019999999552965164,-0.2800000011920929,0.0,0.0010908307740464807,0.0
246,166653,0.05000000074505806,0.029999999329447746,-0.28999999165534973,0.0,0.0,0.0010908307740464807
246,167729,0.05000000074505806,0.03999999910593033,-0.30000001192092896,0.0010908307740464807,-0.0010908307740464807,-0.0021816615480929613
246,168698,0.03999999910593033,0.009999999776482582,-0.28999999165534973,-0.0010908307740464807,-0.0010908307740464807,-0.0010908307740464807
246,169669,0.05000000074505806,0.019999999552965164,-0.2800000011920929,0.0,0.0,0.0021816615480929613
246,170738,0.05999999865889549,0.019999999552965164,-0.2800000011920929,0.0010908307740464807,-0.0010908307740464807,0.0021816615480929613
246,171708,0.05000000074505806,0.009999999776482582,-0.28999999165534973,-0.0010908307740464807,0.0021816615480929613,0.0010908307740464807
246,172681,0.05000000074505806,0.019999999552965164,-0.25999999046325684,-0.0021816615480929613,0.0010908307740464807,0.0010908307740464807
246,173651,0.07999999821186066,0.009999999776482582,-0.28999999165534973,0.0,0.0,-0.0010908307740464807
246,174723,0.05000000074505806,0.009999999776482582,-0.27000001072883606,0.0,0.0021816615480929613,-0.0010908307740464807
246,175694,0.07000000029802322,0.0,-0.2800000011920929,0.0010908307740464807,-0.0021816615480929613,-0.003272492438554764
246,176666,0.07000000029802322,0.019999999552965164,-0.25,0.0,0.0021816615480929613,0.0021816615480929613
246,177737,0.07000000029802322,0.009999999776482582,-0.30000001192092896,0.0021816615480929613,-0.0010908307740464807,0.0
246,178708,0.05000000074505806,0.019999999552965164,-0.27000001072883606,0.0010908307740464807,0.0010908307740464807,-0.0010908307740464807
246,179681,0.07000000029802322,0.029999999329447746,-0.2800000011920929,-0.0010908307740464807,0.0,0.0010908307740464807
246,180656,0.05999999865889549,0.019999999552965164,-0.25999999046325684,0.0010908307740464807,-0.0010908307740464807,0.003272492438554764
246,181728,0.05999999865889549,0.029999999329447746,-0.2800000011920929,0.0021816615480929613,0.0021816615480929613,0.0
246,182705,0.07000000029802322,0.029999999329447746,-0.2800000011920929,0.006544984877109528,0.0010908307740464807,-0.003272492438554764
246,183679,0.07000000029802322,0.0,-0.25999999046325684,0.0021816615480929613,0.0,0.0
246,184652,0.07000000029802322,0.019999999552965164,-0.2800000011920929,0.0,0.0010908307740464807,-0.0021816615480929613
246,185725,0.07000000029802322,0.0,-0.25999999046325684,0.0,-0.0021816615480929613,0.0021816615480929613
246,186695,0.07000000029802322,0.019999999552965164,-0.25999999046325684,0.0,-0.0021816615480929613,0.0021816615480929613
246,187670,0.07999999821186066,0.03999999910593033,-0.25999999046325684,-0.0010908307740464807,0.003272492438554764,0.0010908307740464807
246,188740,0.05999999865889549,0.029999999329447746,-0.2800000011920929,0.0,0.0,0.0021816615480929613
246,189713,0.05999999865889549,0.03999999910593033,-0.2800000011920929,-0.0010908307740464807,0.0010908307740464807,0.0010908307740464807
246,190683,0.09000000357627869,0.03999999910593033,-0.28999999165534973,0.0010908307740464807,0.0010908307740464807,-0.0021816615480929613
246,191654,0.09000000357627869,0.03999999910593033,-0.2800000011920929,0.0,0.0,0.0010908307740464807
246,192724,0.07000000029802322,0.03999999910593033,-0.2800000011920929,0.0010908307740464807,0.0,-0.0010908307740464807
246,193694,0.07000000029802322,0.019999999552965164,-0.27000001072883606,0.0010908307740464807,0.0010908307740464807,0.0010908307740464807
246,194667,0.07999999821186066,0.03999999910593033,-0.25999999046325684,-0.0010908307740464807,0.0,0.0
246,195739,0.07000000029802322,0.019999999552965164,-0.2800000011920929,-0.0010908307740464807,-0.0010908307740464807,0.0
246,196711,0.07999999821186066,0.029999999329447746,-0.25999999046325684,0.0,0.0,-0.0010908307740464807
246,197681,0.07000000029802322,0.009999999776482582,-0.2800000011920929,0.0021816615480929613,0.0,0.0
246,198651,0.07999999821186066,0.029999999329447746,-0.2800000011920929,0.0010908307740464807,-0.0010908307740464807,0.004363323096185923
246,199724,0.09000000357627869,0.029999999329447746,-0.28999999165534973,-0.0010908307740464807,0.0021816615480929613,-0.0010908307740464807
246,200694,0.10999999940395355,0.019999999552965164,-0.27000001072883606,0.0010908307740464807,-0.0010908307740464807,0.0
246,201666,0.07000000029802322,0.0,-0.2800000011920929,0.0010908307740464807,-0.0010908307740464807,0.0
246,202741,0.07999999821186066,0.03999999910593033,-0.27000001072883606,-0.0010908307740464807,-0.0021816615480929613,0.0010908307740464807
246,203712,0.07000000029802322,0.03999999910593033,-0.27000001072883606,-0.0021816615480929613,-0.0021816615480929613,0.0
246,8094,0.03999999910593033,-0.009999999776482582,-0.27000001072883606,0.0,0.0010908307740464807,-0.0010908307740464807
246,9663,0.009999999776482582,-0.019999999552965164,-0.3100000023841858,0.0021816615480929613,0.0021816615480929613,-0.0021816615480929613
246,10738,0.03999999910593033,-0.029999999329447746,-0.27000001072883606,-0.0010908307740464807,-0.0010908307740464807,0.0010908307740464807
246,11711,0.05000000074505806,-0.029999999329447746,-0.28999999165534973,-0.003272492438554764,0.0010908307740464807,0.0010908307740464807
246,12683,0.03999999910593033,-0.009999999776482582,-0.28999999165534973,-0.0010908307740464807,-0.0021816615480929613,0.0010908307740464807
246,13651,0.019999999552965164,-0.009999999776482582,-0.2800000011920929,0.0021816615480929613,0.0010908307740464807,0.0
246,14724,0.03999999910593033,0.0,-0.30000001192092896,0.0010908307740464807,-0.004363323096185923,0.0010908307740464807
246,15694,0.029999999329447746,-0.019999999552965164,-0.30000001192092896,-0.0010908307740464807,-0.003272492438554764,-0.0010908307740464807
246,16668,0.05000000074505806,-0.009999999776482582,-0.3100000023841858,-0.0021816615480929613,0.0,0.0
246,17738,0.019999999552965164,-0.009999999776482582,-0.2800000011920929,-0.0010908307740464807,-0.0010908307740464807,0.0
246,18709,0.05000000074505806,0.0,-0.28999999165534973,0.0,-0.0010908307740464807,-0.0010908307740464807
246,19678,0.03999999910593033,-0.019999999552965164,-0.25999999046325684,0.0010908307740464807,0.0,0.0
246,20648,0.019999999552965164,-0.009999999776482582,-0.30000001192092896,-0.0010908307740464807,0.0010908307740464807,-0.0010908307740464807
246,21718,0.029999999329447746,0.0,-0.2800000011920929,0.0,-0.0010908307740464807,0.0
246,22688,0.03999999910593033,0.0,-0.28999999165534973,-0.0010908307740464807,-0.0021816615480929613,0.003272492438554764
246,23657,0.029999999329447746,-0.009999999776482582,-0.30000001192092896,0.0010908307740464807,0.0010908307740464807,0.0
246,24729,0.029999999329447746,-0.019999999552965164,-0.28999999165534973,-0.0010908307740464807,-0.0010908307740464807,0.0010908307740464807
246,25699,0.019999999552965164,-0.009999999776482582,-0.27000001072883606,0.0,-0.0021816615480929613,0.0010908307740464807
246,26667,0.019999999552965164,-0.019999999552965164,-0.25,0.0021816615480929613,0.003272492438554764,-0.0021816615480929613
246,27736,0.03999999910593033,-0.009999999776482582,-0.27000001072883606,0.0010908307740464807,0.0010908307740464807,0.0
246,28709,0.029999999329447746,-0.019999999552965164,-0.23999999463558197,0.0010908307740464807,0.0,0.0
246,29684,0.05000000074505806,-0.009999999776482582,-0.27000001072883606,0.0,0.0,-0.0010908307740464807
246,30656,0.03999999910593033,-0.009999999776482582,-0.2800000011920929,-0.0021816615480929613,0.0021816615480929613,-0.0010908307740464807
246,31728,0.009999999776482582,0.0,-0.27000001072883606,-0.0010908307740464807,-0.0010908307740464807,-0.0010908307740464807
246,32696,0.029999999329447746,-0.019999999552965164,-0.25,0.0,-0.0010908307740464807,-0.0010908307740464807
246,33666,0.03999999910593033,-0.019999999552965164,-0.3100000023841858,0.0,-0.0021816615480929613,0.0
246,34734,0.0,-0.029999999329447746,-0.2800000011920929,-0.0010908307740464807,-0.0010908307740464807,0.0010908307740464807
246,35706,0.009999999776482582,-0.07999999821186066,-0.28999999165534973,-0.0010908307740464807,-0.0010908307740464807,0.0
246,36681,0.05999999865889549,-0.029999999329447746,-0.28999999165534973,0.0,0.0021816615480929613,0.0
246,37649,0.03999999910593033,0.009999999776482582,-0.28999999165534973,0.0,0.0,0.0010908307740464807
246,38721,0.019999999552965164,-0.009999999776482582,-0.2800000011920929,0.0010908307740464807,-0.0010908307740464807,-0.0021816615480929613
246,39694,0.029999999329447746,0.0,-0.27000001072883606,0.0010908307740464807,0.0021816615480929613,-0.0010908307740464807
246,40664,0.029999999329447746,-0.009999999776482582,-0.25999999046325684,-0.0010908307740464807,0.0,-0.0010908307740464807
246,41737,0.05000000074505806,-0.05000000074505806,-0.2800000011920929,-0.0010908307740464807,0.0010908307740464807,0.0
246,42707,0.019999999552965164,-0.009999999776482582,-0.28999999165534973,-0.0010908307740464807,-0.0010908307740464807,-0.0010908307740464807
246,43678,0.029999999329447746,0.0,-0.25999999046325684,0.0021816615480929613,0.0,0.0
246,44649,0.03999999910593033,-0.029999999329447746,-0.25999999046325684,0.003272492438554764,0.0021816615480929613,-0.003272492438554764
246,45727,0.029999999329447746,0.0,-0.2800000011920929,-0.0010908307740464807,0.0010908307740464807,0.0010908307740464807
246,46700,0.05000000074505806,-0.029999999329447746,-0.28999999165534973,0.0,0.0,0.0010908307740464807
246,47675,0.029999999329447746,0.0,-0.27000001072883606,0.0010908307740464807,-0.0010908307740464807,0.0021816615480929613
246,48645,0.03999999910593033,-0.019999999552965164,-0.2800000011920929,0.0,0.0,0.0010908307740464807
246,49720,0.029999999329447746,-0.009999999776482582,-0.28999999165534973,0.0,0.0010908307740464807,0.0010908307740464807
246,50692,0.03999999910593033,0.0,-0.2800000011920929,-0.0010908307740464807,0.0010908307740464807,0.0010908307740464807
246,51667,0.03999999910593033,-0.009999999776482582,-0.25999999046325684,0.0,-0.0010908307740464807,0.0010908307740464807
246,52740,0.03999999910593033,0.0,-0.2800000011920929,0.0,0.0010908307740464807,0.0010908307740464807
246,53718,0.019999999552965164,-0.019999999552965164,-0.27000001072883606,-0.0021816615480929613,0.0021816615480929613,0.0
246,54693,0.05999999865889549,-0.05000000074505806,-0.27000001072883606,-0.0021816615480929613,0.0010908307740464807,-0.0010908307740464807
246,55665,0.029999999329447746,0.0,-0.27000001072883606,-0.0010908307740464807,0.0010908307740464807,-0.0021816615480929613
246,56743,0.019999999552965164,-0.019999999552965164,-0.28999999165534973,0.0,0.0021816615480929613,0.0010908307740464807
246,57718,0.019999999552965164,-0.019999999552965164,-0.30000001192092896,0.0010908307740464807,0.0,-0.0010908307740464807
246,58692,0.20999999344348907,0.6800000071525574,-0.20999999344348907,0.020725784823298454,-0.008726646192371845,-0.3370667099952698
246,59665,0.46000000834465027,-0.07000000029802322,0.27000001072883606,1.3515393733978271,-0.6424993276596069,0.38069993257522583
246,60740,0.7200000286102295,-0.44999998807907104,2.009999990463257,0.6195918917655945,-0.7973973155021667,-0.12544554471969604
246,61711,-0.14000000059604645,0.3700000047683716,0.6899999976158142,-0.5192354321479797,0.6435901522636414,0.3348850607872009
246,62689,-0.05000000074505806,0.15000000596046448,0.18000000715255737,0.037088245153427124,0.03490658476948738,0.0359974168241024
246,63666,0.09000000357627869,-0.029999999329447746,-0.029999999329447746,-0.046905722469091415,-0.1025380939245224,-0.030543262138962746
246,64738,0.019999999552965164,0.5600000023841858,-3.559999942779541,-1.78350830078125,0.4199698567390442,1.5162547826766968
246,65708,0.009999999776482582,0.17000000178813934,-0.30000001192092896,-0.0010908307740464807,-0.0021816615480929613,0.0
246,66678,0.03999999910593033,0.09000000357627869,-0.33000001311302185,-0.01745329238474369,0.04472406208515167,0.0
246,67654,0.09000000357627869,0.10000000149011612,-0.30000001192092896,0.0054541537538170815,-0.008726646192371845,-0.0010908307740464807
246,68726,0.09000000357627869,0.14000000059604645,-0.30000001192092896,0.0010908307740464807,-0.0021816615480929613,0.0
246,69698,0.10000000149011612,0.10999999940395355,-0.30000001192092896,0.0010908307740464807,0.0010908307740464807,0.0
246,70671,0.10000000149011612,0.15000000596046448,-0.3100000023841858,0.0010908307740464807,0.0010908307740464807,-0.0010908307740464807
246,71748,0.10999999940395355,0.12999999523162842,-0.2800000011920929,0.0,0.0010908307740464807,0.0
246,72722,0.11999999731779099,0.15000000596046448,-0.28999999165534973,0.0010908307740464807,0.0010908307740464807,-0.0010908307740464807
246,73699,0.11999999731779099,0.1599999964237213,-0.3100000023841858,0.0,-0.0021816615480929613,0.0021816615480929613
246,74674,0.14000000059604645,0.14000000059604645,-0.2800000011920929,0.0,-0.0010908307740464807,-0.0010908307740464807
246,75649,0.10999999940395355,0.14000000059604645,-0.2800000011920929,0.0,0.0,-0.0010908307740464807
246,76721,0.10000000149011612,0.10000000149011612,-0.30000001192092896,0.0010908307740464807,-0.0021816615480929613,0.0
246,77696,0.09000000357627869,0.07000000029802322,-0.2800000011920929,0.0,-0.0010908307740464807,-0.0010908307740464807
246,78669,0.07000000029802322,0.05999999865889549,-0.27000001072883606,0.0,0.0010908307740464807,0.0021816615480929613
246,79741,0.05999999865889549,0.07999999821186066,-0.30000001192092896,0.0021816615480929613,0.0010908307740464807,-0.0010908307740464807
246,80714,0.09000000357627869,0.07000000029802322,-0.27000001072883606,-0.0021816615480929613,-0.0010908307740464807,0.0010908307740464807
246,81684,0.03999999910593033,0.029999999329447746,-0.2800000011920929,0.0,0.0,0.0
246,82654,0.05999999865889549,0.07999999821186066,-0.28999999165534973,0.0,-0.0010908307740464807,0.0010908307740464807
246,83734,0.05000000074505806,0.05000000074505806,-0.30000001192092896,0.0,0.0,0.0
246,84708,0.05999999865889549,0.03999999910593033,-0.2800000011920929,0.0,0.0,-0.0010908307740464807
246,85681,0.05999999865889549,0.03999999910593033,-0.28999999165534973,-0.0010908307740464807,0.0,0.0
246,86652,0.05999999865889549,0.03999999910593033,-0.28999999165534973,0.0,0.0021816615480929613,0.0
246,87725,0.05000000074505806,0.05000000074505806,-0.3199999928474426,-0.0010908307740464807,-0.0021816615480929613,0.0010908307740464807
246,88695,0.05999999865889549,0.03999999910593033,-0.2800000011920929,-0.0010908307740464807,0.0010908307740464807,-0.0010908307740464807
246,89670,0.05999999865889549,0.03999999910593033,-0.30000001192092896,0.0,0.0021816615480929613,0.0
246,90739,0.05000000074505806,0.029999999329447746,-0.28999999165534973,0.0010908307740464807,0.0,-0.0010908307740464807
246,91713,0.05999999865889549,0.05000000074505806,-0.3100000023841858,0.003272492438554764,-0.0010908307740464807,0.0
246,92685,0.05999999865889549,0.05000000074505806,-0.2800000011920929,0.0010908307740464807,0.0010908307740464807,0.0010908307740464807
246,93653,0.05000000074505806,0.05999999865889549,-0.28999999165534973,0.0,-0.0021816615480929613,0.0
246,94732,0.03999999910593033,0.03999999910593033,-0.28999999165534973,-0.0010908307740464807,-0.0010908307740464807,0.0021816615480929613
246,95703,0.05999999865889549,0.05000000074505806,-0.28999999165534973,-0.0010908307740464807,-0.0010908307740464807,0.0
246,96675,0.019999999552965164,0.009999999776482582,-0.4099999964237213,0.003272492438554764,-0.011999138630926609,0.003272492438554764
246,97646,-0.05000000074505806,0.09000000357627869,-0.25,0.008726646192371845,-0.018544122576713562,-0.05017821490764618
246,98720,0.05000000074505806,0.03999999910593033,-0.27000001072883606,0.0,0.0,0.0
246,99690,0.03999999910593033,0.03999999910593033,-0.2800000011920929,0.0010908307740464807,-0.0054541537538170815,0.0
246,100666,0.05000000074505806,0.019999999552965164,-0.2800000011920929,-0.0054541537538170815,0.007635815534740686,-0.0010908307740464807
246,101737,0.029999999329447746,0.009999999776482582,-0.3100000023841858,0.0,-0.0010908307740464807,-0.0010908307740464807
246,102712,0.029999999329447746,0.019999999552965164,-0.23999999463558197,0.0,-0.004363323096185923,0.0
246,103681,0.029999999329447746,0.019999999552965164,-0.3400000035762787,0.003272492438554764,-0.007635815534740686,0.0010908307740464807
246,104657,0.05000000074505806,0.03999999910593033,-0.28999999165534973,-0.0054541537538170815,0.011999138630926609,-0.003272492438554764
246,105732,0.029999999329447746,0.0,-0.36000001430511475,-0.0010908307740464807,0.0,0.0021816615480929613
246,106705,0.03999999910593033,0.03999999910593033,-0.28999999165534973,0.0,-0.003272492438554764,0.0010908307740464807
246,107677,0.03999999910593033,0.029999999329447746,-0.30000001192092896,0.0,0.004363323096185923,-0.0010908307740464807
246,108656,0.029999999329447746,0.029999999329447746,-0.28999999165534973,-0.0021816615480929613,0.0,0.0010908307740464807
246,109736,0.05000000074505806,0.009999999776482582,-0.2800000011920929,0.0,0.0,0.0010908307740464807
246,110711,0.03999999910593033,0.0,-0.3100000023841858,-0.0021816615480929613,0.0010908307740464807,0.0
246,111687,0.03999999910593033,0.009999999776482582,-0.25999999046325684,-0.0010908307740464807,0.0021816615480929613,0.0
246,112661,0.019999999552965164,0.009999999776482582,-0.3100000023841858,0.0021816615480929613,-0.004363323096185923,0.0
246,113733,0.019999999552965164,0.029999999329447746,-0.2800000011920929,0.0010908307740464807,-0.003272492438554764,0.0
246,114705,0.03999999910593033,0.029999999329447746,-0.30000001192092896,0.0,-0.003272492438554764,0.0
246,115675,0.05000000074505806,0.029999999329447746,-0.25999999046325684,-0.0010908307740464807,0.0010908307740464807,0.0010908307740464807
246,116649,0.019999999552965164,0.009999999776482582,-0.30000001192092896,0.0010908307740464807,0.0,-0.0010908307740464807
246,117723,0.03999999910593033,0.029999999329447746,-0.30000001192092896,0.0010908307740464807,-0.004363323096185923,0.0010908307740464807
246,118694,0.019999999552965164,0.029999999329447746,-0.3100000023841858,-0.0010908307740464807,0.0010908307740464807,0.0
246,119664,0.03999999910593033,0.029999999329447746,-0.3100000023841858,0.0010908307740464807,-0.0010908307740464807,-0.0010908307740464807
246,120735,0.029999999329447746,0.03999999910593033,-0.30000001192092896,0.0010908307740464807,-0.004363323096185923,0.0
246,121711,0.05000000074505806,0.07999999821186066,-0.2800000011920929,0.0010908307740464807,-0.003272492438554764,0.0021816615480929613
246,122682,-0.019999999552965164,0.009999999776482582,-0.3199999928474426,0.0,0.0010908307740464807,0.0
246,123657,-0.009999999776482582,0.03999999910593033,-0.27000001072883606,0.0010908307740464807,-0.0010908307740464807,0.0010908307740464807
246,124730,0.0,0.009999999776482582,-0.2800000011920929,0.0021816615480929613,0.0,0.0010908307740464807
246,125700,0.0,0.05999999865889549,-0.30000001192092896,-0.0010908307740464807,-0.0021816615480929613,0.0021816615480929613
246,126672,0.0,-0.029999999329447746,-0.2800000011920929,0.0010908307740464807,0.0010908307740464807,0.0
246,127746,0.0,0.03999999910593033,-0.30000001192092896,0.0010908307740464807,-0.0010908307740464807,-0.0010908307740464807
246,128720,0.05000000074505806,0.029999999329447746,-0.3100000023841858,-0.0021816615480929613,0.0054541537538170815,0.0
246,129693,-0.009999999776482582,0.0,-0.25999999046325684,-0.003272492438554764,0.007635815534740686,0.0
246,130669,0.05999999865889549,-0.019999999552965164,-0.30000001192092896,0.0010908307740464807,0.0,0.0
246,131649,0.05999999865889549,0.0,-0.2800000011920929,0.0,0.0010908307740464807,-0.0010908307740464807
246,132629,0.05000000074505806,-0.009999999776482582,-0.28999999165534973,0.0010908307740464807,-0.0021816615480929613,-0.0010908307740464807
246,133709,0.05999999865889549,0.0,-0.30000001192092896,-0.0010908307740464807,0.004363323096185923,0.0
246,134685,0.05999999865889549,-0.019999999552965164,-0.2800000011920929,0.0021816615480929613,-0.0021816615480929613,0.0
246,135659,0.05000000074505806,0.029999999329447746,-0.28999999165534973,-0.0010908307740464807,0.003272492438554764,0.0
246,136640,0.05000000074505806,0.029999999329447746,-0.2800000011920929,-0.003272492438554764,0.008726646192371845,0.0
246,137615,0.07000000029802322,0.03999999910593033,-0.20000000298023224,0.0010908307740464807,-0.0021816615480929613,-0.0021816615480929613
246,138695,0.05999999865889549,0.0,-0.30000001192092896,0.0,0.003272492438554764,0.0
246,139673,0.07000000029802322,0.0,-0.25999999046325684,0.0021816615480929613,-0.009817477315664291,0.0
246,140652,0.07000000029802322,0.019999999552965164,-0.2800000011920929,-0.0010908307740464807,0.0021816615480929613,0.0
246,141628,0.07000000029802322,0.009999999776482582,-0.3100000023841858,0.0,0.0,0.0
246,142707,0.05000000074505806,0.029999999329447746,-0.14000000059604645,0.06872233748435974,-0.16253378987312317,0.0054541537538170815
246,143682,0.03999999910593033,0.009999999776482582,-0.27000001072883606,-0.0021816615480929613,0.0054541537538170815,0.0
246,144658,0.009999999776482582,-0.009999999776482582,-0.28999999165534973,0.0010908307740464807,0.0010908307740464807,0.0
246,8460,0.009999999776482582,-0.009999999776482582,-0.30000001192092896,0.0,0.0021816615480929613,-0.0010908307740464807
246,9740,0.009999999776482582,-0.009999999776482582,-0.28999999165534973,0.0,0.0,0.0010908307740464807
246,10716,-0.009999999776482582,-0.019999999552965164,-0.2800000011920929,0.0021816615480929613,-0.0021816615480929613,0.0
246,11692,-0.009999999776482582,-0.009999999776482582,-0.2800000011920929,-0.0021816615480929613,0.0,0.0
246,12667,0.0,-0.03999999910593033,-0.30000001192092896,-0.0010908307740464807,-0.0054541537538170815,0.0010908307740464807
246,13740,0.0,-0.019999999552965164,-0.28999999165534973,0.0010908307740464807,-0.0010908307740464807,-0.0010908307740464807
246,14714,0.0,-0.019999999552965164,-0.2800000011920929,0.0010908307740464807,0.0,0.0
246,15684,0.0,-0.029999999329447746,-0.2800000011920929,0.0010908307740464807,-0.0010908307740464807,0.0010908307740464807
246,16654,0.0,-0.019999999552965164,-0.2800000011920929,-0.0010908307740464807,0.0010908307740464807,0.0010908307740464807
246,17722,-0.009999999776482582,-0.019999999552965164,-0.25999999046325684,-0.0010908307740464807,-0.0021816615480929613,-0.0010908307740464807
246,18692,-0.019999999552965164,-0.009999999776482582,-0.28999999165534973,0.0010908307740464807,0.0,-0.0010908307740464807
246,19663,0.0,-0.029999999329447746,-0.2800000011920929,0.0010908307740464807,0.0021816615480929613,0.0021816615480929613
246,20738,0.0,-0.009999999776482582,-0.28999999165534973,0.0010908307740464807,0.0,-0.0010908307740464807
246,21709,0.0,-0.029999999329447746,-0.2800000011920929,-0.0010908307740464807,-0.0010908307740464807,-0.0010908307740464807
246,22684,0.0,-0.009999999776482582,-0.28999999165534973,-0.0010908307740464807,-0.0021816615480929613,0.0021816615480929613
246,23662,0.0,-0.019999999552965164,-0.2800000011920929,-0.0010908307740464807,0.0021816615480929613,0.0021816615480929613
246,24737,0.009999999776482582,0.0,-0.2800000011920929,-0.0021816615480929613,0.0010908307740464807,0.0010908307740464807
246,25710,0.0,0.0,-0.3199999928474426,-0.0021816615480929613,0.009817477315664291,-0.003272492438554764
246,26682,-0.019999999552965164,-0.019999999552965164,-0.28999999165534973,0.0,0.0021816615480929613,-0.0010908307740464807
246,27655,-0.029999999329447746,-0.009999999776482582,-0.30000001192092896,-0.0010908307740464807,0.0010908307740464807,0.0010908307740464807
246,28730,0.009999999776482582,-0.05999999865889549,-0.30000001192092896,0.0,-0.0021816615480929613,-0.0010908307740464807
246,29702,0.0,-0.019999999552965164,-0.25999999046325684,0.014180799946188927,-0.03381575271487236,0.0021816615480929613
246,30672,-0.009999999776482582,-0.03999999910593033,-0.30000001192092896,0.0,0.0,0.004363323096185923
246,31630,-0.05999999865889549,-0.03999999910593033,-0.27000001072883606,0.0,-0.0010908307740464807,-0.0021816615480929613
246,32725,-0.03999999910593033,-0.05000000074505806,-0.25,0.0,-0.0010908307740464807,-0.0010908307740464807
246,33699,-0.03999999910593033,-0.019999999552965164,-0.2800000011920929,0.0010908307740464807,-0.0010908307740464807,-0.0021816615480929613
246,34673,-0.019999999552965164,-0.03999999910593033,-0.25999999046325684,0.0021816615480929613,-0.0021816615480929613,0.0010908307740464807
246,35649,-0.009999999776482582,-0.019999999552965164,-0.28999999165534973,0.0,-0.007635815534740686,0.0
246,36724,-0.019999999552965164,-0.029999999329447746,-0.28999999165534973,0.0,0.0010908307740464807,-0.0010908307740464807
246,37696,0.0,-0.019999999552965164,-0.30000001192092896,0.0021816615480929613,0.0010908307740464807,0.0021816615480929613
246,38668,0.009999999776482582,0.0,-0.2800000011920929,0.0,-0.0010908307740464807,-0.0010908307740464807
246,39740,-0.03999999910593033,-0.05000000074505806,-0.28999999165534973,-0.0010908307740464807,0.0010908307740464807,0.0010908307740464807
246,40715,-0.019999999552965164,-0.03999999910593033,-0.27000001072883606,0.0010908307740464807,0.0,0.0010908307740464807
246,41685,0.0,-0.009999999776482582,-0.2800000011920929,-0.0010908307740464807,-0.0010908307740464807,-0.0010908307740464807
246,42658,-0.009999999776482582,-0.03999999910593033,-0.27000001072883606,0.0021816615480929613,-0.003272492438554764,0.0
246,43728,-0.019999999552965164,-0.019999999552965164,-0.3199999928474426,-0.0054541537538170815,0.008726646192371845,-0.0021816615480929613
246,44703,0.0,-0.019999999552965164,-0.2800000011920929,0.0,-0.0021816615480929613,-0.0010908307740464807
246,45676,0.0,0.0,-0.2800000011920929,0.0010908307740464807,-0.0021816615480929613,0.0
246,46648,0.25999999046325684,-0.2800000011920929,-0.23000000417232513,0.003272492438554764,-0.010908307507634163,-0.0021816615480929613
246,47719,0.0,-0.05000000074505806,-0.25999999046325684,0.0010908307740464807,0.0010908307740464807,-0.0010908307740464807
246,48695,0.009999999776482582,-0.019999999552965164,-0.23999999463558197,0.0054541537538170815,-0.009817477315664291,-0.0010908307740464807
246,49669,0.0,-0.029999999329447746,-0.28999999165534973,-0.0021816615480929613,0.0,0.0
246,50739,0.0,-0.019999999552965164,-0.2800000011920929,0.0021816615480929613,-0.009817477315664291,0.0021816615480929613
246,51709,0.0,-0.009999999776482582,-0.30000001192092896,0.0,0.0010908307740464807,-0.0021816615480929613
246,52685,0.0,-0.019999999552965164,-0.2800000011920929,-0.0021816615480929613,0.0021816615480929613,0.0
246,53659,0.0,-0.05000000074505806,-0.27000001072883606,0.0010908307740464807,-0.006544984877109528,0.0010908307740464807
246,54730,0.009999999776482582,-0.019999999552965164,-0.25,0.0021816615480929613,-0.007635815534740686,0.0
246,55705,0.0,0.0,-0.2800000011920929,0.0021816615480929613,-0.006544984877109528,0.0010908307740464807
246,56674,0.0,-0.009999999776482582,-0.27000001072883606,0.0,0.0,0.0
246,57646,0.009999999776482582,0.0,-0.2800000011920929,0.0010908307740464807,-0.003272492438554764,0.0
246,58720,0.0,-0.019999999552965164,-0.2800000011920929,-0.0021816615480929613,0.0021816615480929613,0.0
246,59689,0.0,0.0,-0.30000001192092896,0.0021816615480929613,0.0,0.0021816615480929613
246,60660,0.0,0.0,-0.2800000011920929,0.0,0.0010908307740464807,0.0
246,61730,0.0,-0.019999999552965164,-0.28999999165534973,0.0010908307740464807,-0.0010908307740464807,-0.0010908307740464807
246,62702,0.0,0.009999999776482582,-0.28999999165534973,0.0,0.0010908307740464807,0.0
246,63676,0.0,0.0,-0.30000001192092896,-0.0010908307740464807,0.0010908307740464807,0.0
246,64651,0.0,0.019999999552965164,-0.2800000011920929,0.0,0.0,-0.0010908307740464807
246,65719,0.0,-0.019999999552965164,-0.30000001192092896,0.0010908307740464807,0.0,-0.0021816615480929613
246,66686,0.009999999776482582,0.0,-0.25,0.0,0.0021816615480929613,-0.0010908307740464807
246,67655,0.0,0.0,-0.30000001192092896,-0.0021816615480929613,-0.0010908307740464807,0.0010908307740464807
246,68727,0.009999999776482582,0.0,-0.28999999165534973,0.0,0.0,-0.0010908307740464807
246,69701,0.0,0.0,-0.28999999165534973,0.0,0.0021816615480929613,-0.0010908307740464807
246,70676,0.0,0.0,-0.2800000011920929,0.0010908307740464807,0.0010908307740464807,-0.0010908307740464807
246,71646,0.0,0.019999999552965164,-0.30000001192092896,-0.0010908307740464807,-0.003272492438554764,0.0010908307740464807
246,72721,0.0,0.0,-0.28999999165534973,0.0,-0.0010908307740464807,0.0
246,73691,0.009999999776482582,-0.009999999776482582,-0.27000001072883606,0.0010908307740464807,0.0,0.0
246,74666,0.0,-0.029999999329447746,-0.3700000047683716,-0.0010908307740464807,0.011999138630926609,-0.0021816615480929613
246,75603,0.0,0.009999999776482582,-0.30000001192092896,0.0,0.0021816615480929613,0.0
246,76709,0.09000000357627869,-0.05000000074505806,-0.2800000011920929,0.0010908307740464807,0.0021816615480929613,-0.0010908307740464807
246,77677,0.07999999821186066,-0.019999999552965164,-0.2800000011920929,-0.0021816615480929613,-0.0010908307740464807,-0.0021816615480929613
246,78646,0.07000000029802322,-0.009999999776482582,-0.2800000011920929,0.0,-0.0010908307740464807,0.0
246,79719,0.07999999821186066,0.0,-0.2800000011920929,-0.0021816615480929613,-0.0010908307740464807,-0.0010908307740464807
246,80691,0.05999999865889549,0.0,-0.30000001192092896,0.0010908307740464807,-0.003272492438554764,0.0021816615480929613
246,81659,0.07000000029802322,-0.019999999552965164,-0.3100000023841858,0.0010908307740464807,0.0010908307740464807,0.0
246,82732,0.09000000357627869,-0.019999999552965164,-0.28999999165534973,0.0010908307740464807,-0.0010908307740464807,0.0
246,83706,0.05999999865889549,0.0,-0.30000001192092896,-0.0010908307740464807,0.0021816615480929613,0.0010908307740464807
246,84676,0.07999999821186066,-0.019999999552965164,-0.30000001192092896,0.0010908307740464807,0.0010908307740464807,0.0
246,85648,0.07999999821186066,-0.019999999552965164,-0.28999999165534973,-0.0010908307740464807,-0.0010908307740464807,-0.0010908307740464807
246,86721,0.07999999821186066,0.0,-0.2800000011920929,-0.0010908307740464807,0.0021816615480929613,0.0
246,87692,0.07999999821186066,-0.029999999329447746,-0.28999999165534973,0.0,0.0021816615480929613,0.0021816615480929613
246,88660,0.07999999821186066,-0.009999999776482582,-0.28999999165534973,0.0021816615480929613,-0.0021816615480929613,0.0010908307740464807
246,89733,0.07999999821186066,-0.009999999776482582,-0.30000001192092896,0.0010908307740464807,0.0,-0.0010908307740464807
246,90704,0.07000000029802322,-0.019999999552965164,-0.27000001072883606,0.0,0.0010908307740464807,0.0021816615480929613
246,91677,0.07000000029802322,0.009999999776482582,-0.30000001192092896,0.0,0.0,0.0010908307740464807
246,92647,0.07000000029802322,-0.019999999552965164,-0.2800000011920929,0.0,0.0,-0.0010908307740464807
246,93719,0.07999999821186066,-0.019999999552965164,-0.27000001072883606,0.0,-0.0010908307740464807,0.0
246,94689,0.07000000029802322,0.009999999776482582,-0.27000001072883606,0.0,0.0,-0.0010908307740464807
246,95657,0.05999999865889549,0.029999999329447746,-0.2800000011920929,-0.0010908307740464807,0.0010908307740464807,0.0
246,96729,0.07999999821186066,-0.03999999910593033,-0.25,0.0,-0.0010908307740464807,0.0
246,97703,0.07000000029802322,0.0,-0.3100000023841858,0.0,0.0,-0.0010908307740464807
246,98673,0.09000000357627869,-0.019999999552965164,-0.27000001072883606,0.0021816615480929613,-0.0010908307740464807,-0.0021816615480929613
246,99646,0.07999999821186066,-0.029999999329447746,-0.27000001072883606,0.0021816615480929613,0.0021816615480929613,0.0
246,100715,0.07000000029802322,-0.029999999329447746,-0.27000001072883606,-0.003272492438554764,0.0010908307740464807,-0.0010908307740464807
246,101684,0.07000000029802322,-0.03999999910593033,-0.28999999165534973,-0.0010908307740464807,0.0021816615480929613,0.0
246,102654,0.07999999821186066,-0.03999999910593033,-0.27000001072883606,0.0010908307740464807,-0.0010908307740464807,0.0
246,103727,0.09000000357627869,-0.029999999329447746,-0.28999999165534973,0.0021816615480929613,0.0021816615480929613,-0.0010908307740464807
246,104699,0.07999999821186066,-0.029999999329447746,-0.30000001192092896,0.0,-0.0010908307740464807,0.0021816615480929613
246,105671,0.07999999821186066,-0.029999999329447746,-0.30000001192092896,-0.0010908307740464807,-0.0021816615480929613,-0.0010908307740464807
246,106740,0.07000000029802322,0.0,-0.2800000011920929,-0.0010908307740464807,0.0,-0.0021816615480929613
246,107711,0.05999999865889549,-0.019999999552965164,-0.23999999463558197,-0.0010908307740464807,0.0,0.0010908307740464807
246,108686,0.07000000029802322,-0.009999999776482582,-0.27000001072883606,0.0010908307740464807,0.0,0.0
246,109656,0.05999999865889549,-0.019999999552965164,-0.28999999165534973,0.0,0.0,0.0
246,110730,0.07999999821186066,0.0,-0.2800000011920929,-0.0021816615480929613,0.0,0.0
246,111698,0.07000000029802322,-0.019999999552965164,-0.27000001072883606,0.0021816615480929613,0.0,-0.0010908307740464807
246,112674,0.05999999865889549,0.0,-0.3100000023841858,0.0,0.0,0.0010908307740464807
246,113742,0.07999999821186066,-0.019999999552965164,-0.27000001072883606,0.0,0.0,-0.0010908307740464807
246,114717,0.07000000029802322,0.0,-0.28999999165534973,0.0010908307740464807,0.003272492438554764,-0.0021816615480929613
246,115688,0.07999999821186066,0.0,-0.28999999165534973,0.0,0.0021816615480929613,0.0
246,116664,0.07999999821186066,0.0,-0.27000001072883606,0.0,0.0010908307740464807,0.0021816615480929613
246,117735,0.07999999821186066,0.0,-0.30000001192092896,0.003272492438554764,-0.0021816615480929613,0.0010908307740464807
246,118709,0.09000000357627869,-0.029999999329447746,-0.27000001072883606,0.0,0.0,-0.0010908307740464807
246,119682,0.07999999821186066,0.0,-0.3100000023841858,-0.0010908307740464807,0.0,0.0
246,120657,0.09000000357627869,0.0,-0.27000001072883606,-0.0010908307740464807,0.0,0.0010908307740464807
246,121730,0.05999999865889549,0.0,-0.28999999165534973,-0.0010908307740464807,0.003272492438554764,-0.0010908307740464807
246,122707,0.07999999821186066,-0.019999999552965164,-0.28999999165534973,0.0010908307740464807,0.0,0.0010908307740464807
246,123679,0.07000000029802322,-0.009999999776482582,-0.3100000023841858,0.0010908307740464807,0.0,0.0010908307740464807
246,124654,0.07999999821186066,0.0,-0.30000001192092896,0.0,0.0021816615480929613,0.0
246,125732,0.09000000357627869,0.0,-0.2800000011920929,0.0,-0.0010908307740464807,-0.0021816615480929613
246,126709,0.09000000357627869,0.0,-0.28999999165534973,-0.0021816615480929613,-0.0010908307740464807,0.0
246,127685,0.07999999821186066,-0.019999999552965164,-0.27000001072883606,-0.0021816615480929613,0.0010908307740464807,0.0021816615480929613
246,12791,0.0,-0.03999999910593033,-0.2800000011920929,-0.0010908307740464807,0.0010908307740464807,0.0010908307740464807
246,13661,-0.009999999776482582,-0.05999999865889549,-0.27000001072883606,0.0010908307740464807,0.0010908307740464807,0.0
246,14736,-0.009999999776482582,-0.029999999329447746,-0.27000001072883606,0.0021816615480929613,0.0010908307740464807,0.0010908307740464807
246,15706,-0.019999999552965164,-0.03999999910593033,-0.30000001192092896,0.0010908307740464807,-0.0010908307740464807,0.0
246,16678,-0.019999999552965164,-0.03999999910593033,-0.30000001192092896,-0.0010908307740464807,-0.0021816615480929613,0.0
246,17649,0.05999999865889549,-0.23000000417232513,-0.2800000011920929,0.0010908307740464807,0.006544984877109528,0.2410736083984375
246,18717,-0.009999999776482582,-0.009999999776482582,-0.2800000011920929,0.0,0.0,0.0
246,19688,0.0,-0.009999999776482582,-0.30000001192092896,0.0,0.0010908307740464807,0.0010908307740464807
246,20657,-0.019999999552965164,-0.05000000074505806,-0.30000001192092896,0.0010908307740464807,0.003272492438554764,-0.0010908307740464807
246,21729,-0.009999999776482582,-0.03999999910593033,-0.30000001192092896,-0.0021816615480929613,-0.0021816615480929613,0.0
246,22701,0.0,-0.019999999552965164,-0.28999999165534973,-0.0010908307740464807,0.0010908307740464807,0.0010908307740464807
246,23671,-0.019999999552965164,-0.019999999552965164,-0.28999999165534973,-0.0010908307740464807,-0.0021816615480929613,0.0010908307740464807
246,24643,-0.009999999776482582,-0.03999999910593033,-0.27000001072883606,0.0,0.0,0.0
246,25716,0.0,-0.019999999552965164,-0.25999999046325684,0.0010908307740464807,0.0,0.0
246,26691,-0.019999999552965164,-0.03999999910593033,-0.2800000011920929,0.0010908307740464807,-0.0021816615480929613,0.0
246,27661,-0.009999999776482582,-0.029999999329447746,-0.28999999165534973,-0.0010908307740464807,0.0021816615480929613,-0.0010908307740464807
246,28734,0.0,-0.03999999910593033,-0.30000001192092896,0.0,0.0,-0.0010908307740464807
246,29709,-0.009999999776482582,-0.009999999776482582,-0.28999999165534973,-0.0010908307740464807,-0.003272492438554764,0.0
246,30682,-0.019999999552965164,-0.019999999552965164,-0.2800000011920929,0.0010908307740464807,0.0010908307740464807,-0.0021816615480929613
246,31660,-0.029999999329447746,-0.019999999552965164,-0.27000001072883606,0.0,0.0010908307740464807,0.0021816615480929613
246,32737,-0.009999999776482582,-0.03999999910593033,-0.25999999046325684,-0.0010908307740464807,0.0010908307740464807,0.0
246,33710,-0.029999999329447746,-0.019999999552965164,-0.2800000011920929,0.0010908307740464807,0.0,0.0010908307740464807
246,34682,-0.009999999776482582,-0.009999999776482582,-0.28999999165534973,0.0010908307740464807,-0.0010908307740464807,0.0
246,35655,-0.03999999910593033,-0.03999999910593033,-0.2800000011920929,0.0,-0.0021816615480929613,0.0021816615480929613
246,36730,-0.009999999776482582,-0.05000000074505806,-0.2800000011920929,0.0,-0.0010908307740464807,0.0010908307740464807
246,37698,-0.009999999776482582,-0.029999999329447746,-0.28999999165534973,-0.0010908307740464807,0.0,-0.0010908307740464807
246,38675,-0.009999999776482582,-0.029999999329447746,-0.2800000011920929,-0.0010908307740464807,0.0010908307740464807,0.0
246,8750,0.009999999776482582,-0.019999999552965164,-0.27000001072883606,0.0010908307740464807,0.004363323096185923,0.0010908307740464807
246,9722,0.0,-0.009999999776482582,-0.27000001072883606,0.0010908307740464807,-0.0010908307740464807,0.0
246,10696,0.0,0.0,-0.30000001192092896,0.0010908307740464807,0.0,0.0
246,11669,0.009999999776482582,-0.029999999329447746,-0.30000001192092896,0.0010908307740464807,0.0,-0.0010908307740464807
246,12742,0.0,-0.03999999910593033,-0.2800000011920929,0.0,0.0010908307740464807,0.0
246,13717,0.019999999552965164,-0.009999999776482582,-0.27000001072883606,0.0,0.0010908307740464807,-0.0010908307740464807
246,14686,0.009999999776482582,-0.03999999910593033,-0.2800000011920929,0.0021816615480929613,0.0010908307740464807,-0.0010908307740464807
246,15659,0.0,-0.019999999552965164,-0.30000001192092896,0.0010908307740464807,-0.0010908307740464807,0.0
246,16731,0.0,0.0,-0.3100000023841858,0.0010908307740464807,-0.0010908307740464807,-0.0010908307740464807
246,17908,0.0,-0.05000000074505806,-0.2800000011920929,0.0,0.0021816615480929613,0.0
246,18982,0.0,-0.009999999776482582,-0.28999999165534973,0.0,0.0,-0.003272492438554764
246,19958,-0.009999999776482582,-0.009999999776482582,-0.25999999046325684,0.0,0.0,-0.0010908307740464807
246,20936,0.0,0.0,-0.28999999165534973,0.0,0.003272492438554764,-0.0010908307740464807
246,21914,-0.009999999776482582,-0.019999999552965164,-0.28999999165534973,-0.0010908307740464807,-0.0010908307740464807,-0.0010908307740464807
246,22990,0.0,0.0,-0.27000001072883606,0.0010908307740464807,0.003272492438554764,-0.0010908307740464807
246,23969,0.0,-0.019999999552965164,-0.33000001311302185,-0.0010908307740464807,-0.003272492438554764,0.0021816615480929613
246,24946,0.0,0.0,-0.2800000011920929,0.0,-0.0021816615480929613,0.0010908307740464807
246,25923,0.019999999552965164,0.0,-0.28999999165534973,0.0010908307740464807,0.0010908307740464807,0.0
246,26902,0.0,-0.019999999552965164,-0.28999999165534973,0.0,0.0021816615480929613,0.0
246,27981,-0.009999999776482582,-0.009999999776482582,-0.27000001072883606,0.0,-0.0010908307740464807,-0.0010908307740464807
246,28955,0.0,-0.009999999776482582,-0.27000001072883606,-0.0010908307740464807,0.0010908307740464807,-0.0010908307740464807
246,29932,0.0,0.0,-0.2800000011920929,0.0,0.0021816615480929613,-0.0010908307740464807
246,30908,0.0,-0.019999999552965164,-0.30000001192092896,0.0021816615480929613,0.0010908307740464807,0.0010908307740464807
246,31982,0.0,-0.03999999910593033,-0.27000001072883606,-0.0010908307740464807,0.0021816615480929613,-0.0010908307740464807
246,32962,0.0,-0.009999999776482582,-0.28999999165534973,0.0,0.003272492438554764,0.0021816615480929613
246,33936,-0.009999999776482582,-0.019999999552965164,-0.27000001072883606,0.0021816615480929613,0.003272492438554764,0.0
246,34912,0.009999999776482582,-0.029999999329447746,-0.28999999165534973,0.0,-0.003272492438554764,-0.0021816615480929613
246,35887,0.0,-0.029999999329447746,-0.2800000011920929,-0.0010908307740464807,0.0,0.0010908307740464807
246,36964,0.0,-0.029999999329447746,-0.27000001072883606,-0.0010908307740464807,0.0,0.0021816615480929613
246,37942,0.0,0.0,-0.27000001072883606,-0.0010908307740464807,0.0021816615480929613,0.0010908307740464807
246,38922,0.0,0.0,-0.25999999046325684,0.0,0.0021816615480929613,0.0
246,39899,-0.009999999776482582,-0.019999999552965164,-0.30000001192092896,0.0,-0.003272492438554764,-0.0010908307740464807
246,40973,0.0,-0.009999999776482582,-0.2800000011920929,0.0010908307740464807,-0.0021816615480929613,-0.0010908307740464807
246,41953,0.0,-0.029999999329447746,-0.27000001072883606,0.0010908307740464807,-0.0021816615480929613,0.0
246,42933,-0.009999999776482582,-0.03999999910593033,-0.3100000023841858,0.0,0.0,0.0010908307740464807
246,43911,-0.029999999329447746,-0.009999999776482582,-0.25,-0.0010908307740464807,0.0,0.0010908307740464807
246,44889,0.0,-0.019999999552965164,-0.30000001192092896,0.0010908307740464807,-0.0010908307740464807,0.0
246,45970,-0.009999999776482582,0.0,-0.27000001072883606,0.0,0.0010908307740464807,0.0
246,46948,0.009999999776482582,0.0,-0.2800000011920929,-0.0010908307740464807,-0.0010908307740464807,0.0021816615480929613
246,47926,0.009999999776482582,-0.019999999552965164,-0.28999999165534973,-0.0021816615480929613,-0.0021816615480929613,-0.0010908307740464807
246,48899,-0.019999999552965164,-0.019999999552965164,-0.25,-0.0010908307740464807,-0.0010908307740464807,-0.0021816615480929613
246,49976,0.029999999329447746,-0.019999999552965164,-0.2800000011920929,0.0,-0.0010908307740464807,-0.0021816615480929613
246,50954,0.0,-0.009999999776482582,-0.25999999046325684,0.0010908307740464807,0.0021816615480929613,0.0010908307740464807
246,51933,0.029999999329447746,-0.03999999910593033,-0.30000001192092896,-0.0010908307740464807,-0.0010908307740464807,-0.0021816615480929613
246,52915,0.0,-0.019999999552965164,-0.28999999165534973,0.0021816615480929613,0.0021816615480929613,-0.0021816615480929613
246,53869,0.0,-0.009999999776482582,-0.3100000023841858,0.0,0.0,0.0010908307740464807
246,54967,0.009999999776482582,-0.029999999329447746,-0.25999999046325684,-0.0021816615480929613,-0.0010908307740464807,0.0
246,55941,0.0,-0.05000000074505806,-0.27000001072883606,0.003272492438554764,0.0010908307740464807,0.0
246,56916,0.0,-0.019999999552965164,-0.28999999165534973,0.0010908307740464807,-0.0010908307740464807,-0.0021816615480929613
246,57892,0.009999999776482582,0.0,-0.2800000011920929,-0.0010908307740464807,-0.004363323096185923,-0.0010908307740464807
246,58969,0.009999999776482582,-0.019999999552965164,-0.28999999165534973,-0.0010908307740464807,-0.0021816615480929613,0.0010908307740464807
246,59942,0.0,-0.029999999329447746,-0.27000001072883606,-0.0010908307740464807,0.0,0.0
246,60918,-0.019999999552965164,-0.009999999776482582,-0.25999999046325684,0.0021816615480929613,0.003272492438554764,-0.0010908307740464807
246,61996,0.019999999552965164,-0.009999999776482582,-0.28999999165534973,0.0,-0.0010908307740464807,0.0
246,62976,0.0,-0.009999999776482582,-0.30000001192092896,-0.0021816615480929613,-0.0010908307740464807,0.0
246,63953,0.0,0.0,-0.30000001192092896,-0.0021816615480929613,0.0010908307740464807,0.0
246,64928,-0.009999999776482582,-0.019999999552965164,-0.28999999165534973,-0.0021816615480929613,-0.0021816615480929613,0.0010908307740464807
246,65903,0.0,-0.019999999552965164,-0.28999999165534973,0.0010908307740464807,0.0,0.0
246,66978,0.0,-0.029999999329447746,-0.28999999165534973,-0.0010908307740464807,-0.0010908307740464807,0.0
246,67955,0.0,-0.03999999910593033,-0.2800000011920929,0.0010908307740464807,-0.0010908307740464807,-0.0021816615480929613
246,68930,-0.019999999552965164,-0.019999999552965164,-0.25999999046325684,0.0010908307740464807,-0.003272492438554764,0.0
246,69907,0.0,0.0,-0.2800000011920929,0.0,0.0,0.0
246,70983,-0.019999999552965164,-0.019999999552965164,-0.2800000011920929,0.0,-0.0010908307740464807,0.0
246,71960,-0.009999999776482582,-0.019999999552965164,-0.2800000011920929,-0.0021816615480929613,-0.0010908307740464807,0.0010908307740464807
246,72938,0.0,-0.019999999552965164,-0.28999999165534973,0.0,0.0010908307740464807,-0.0010908307740464807
246,73913,-0.019999999552965164,-0.019999999552965164,-0.2800000011920929,0.0,0.0010908307740464807,0.0
246,74888,0.0,-0.009999999776482582,-0.28999999165534973,-0.0010908307740464807,-0.0010908307740464807,-0.003272492438554764
246,75961,-0.009999999776482582,-0.019999999552965164,-0.28999999165534973,0.0,0.0,0.0
246,76940,-0.019999999552965164,-0.03999999910593033,-0.28999999165534973,0.0021816615480929613,0.0,0.0
246,77915,0.009999999776482582,-0.019999999552965164,-0.3100000023841858,0.0,-0.0021816615480929613,0.0010908307740464807
246,78992,0.019999999552965164,-0.019999999552965164,-0.25999999046325684,0.0021816615480929613,-0.0010908307740464807,0.0010908307740464807
246,79966,-0.009999999776482582,-0.009999999776482582,-0.30000001192092896,-0.0010908307740464807,-0.0010908307740464807,0.0
246,80940,-0.019999999552965164,-0.029999999329447746,-0.30000001192092896,0.0,0.0,0.0010908307740464807
246,81914,0.0,-0.009999999776482582,-0.30000001192092896,-0.0010908307740464807,-0.0010908307740464807,0.0
246,82989,0.0,0.0,-0.28999999165534973,-0.0010908307740464807,0.0,0.0
246,83968,0.0,-0.009999999776482582,-0.27000001072883606,0.0,0.0,-0.0021816615480929613
246,84947,-0.009999999776482582,-0.009999999776482582,-0.2800000011920929,0.0,-0.0010908307740464807,0.0010908307740464807
246,85922,0.0,-0.019999999552965164,-0.2800000011920929,-0.0010908307740464807,0.0021816615480929613,0.0
246,86901,0.009999999776482582,-0.029999999329447746,-0.3199999928474426,-0.0010908307740464807,0.0,-0.0010908307740464807
246,87853,0.009999999776482582,0.0,-0.2800000011920929,0.0,-0.0010908307740464807,-0.0010908307740464807
246,88958,0.009999999776482582,-0.019999999552965164,-0.28999999165534973,0.0,-0.0010908307740464807,0.0
246,89932,-0.009999999776482582,-0.019999999552965164,-0.30000001192092896,0.0010908307740464807,0.0021816615480929613,-0.0010908307740464807
246,90908,0.0,-0.029999999329447746,-0.27000001072883606,0.0,0.0,0.0010908307740464807
246,91869,0.0,-0.019999999552965164,-0.28999999165534973,0.0021816615480929613,0.0,0.0
246,92962,0.0,-0.03999999910593033,-0.28999999165534973,0.0010908307740464807,-0.0021816615480929613,0.0021816615480929613
246,93940,0.0,-0.019999999552965164,-0.2800000011920929,-0.0010908307740464807,0.003272492438554764,0.0010908307740464807
246,94920,0.0,-0.019999999552965164,-0.2800000011920929,0.0,-0.0021816615480929613,0.0010908307740464807
246,95898,-0.009999999776482582,-0.019999999552965164,-0.27000001072883606,0.0,0.0,-0.0010908307740464807
246,96975,0.0,-0.029999999329447746,-0.28999999165534973,0.0010908307740464807,0.0010908307740464807,0.0
246,97952,0.0,-0.019999999552965164,-0.30000001192092896,0.0010908307740464807,0.0010908307740464807,0.0
246,98928,-0.009999999776482582,-0.009999999776482582,-0.27000001072883606,0.0021816615480929613,0.0021816615480929613,0.0
246,99905,-0.019999999552965164,-0.019999999552965164,-0.3400000035762787,0.0021816615480929613,-0.0010908307740464807,-0.0010908307740464807
246,100885,-0.029999999329447746,-0.009999999776482582,-0.28999999165534973,0.0,0.0,-0.0010908307740464807
246,101961,-0.019999999552965164,-0.009999999776482582,-0.3100000023841858,0.0010908307740464807,0.0010908307740464807,0.0010908307740464807
246,102936,-0.009999999776482582,-0.009999999776482582,-0.28999999165534973,-0.0010908307740464807,-0.0021816615480929613,0.0
246,103915,-0.009999999776482582,-0.019999999552965164,-0.30000001192092896,0.003272492438554764,0.0,0.0
246,104892,-0.019999999552965164,-0.019999999552965164,-0.27000001072883606,0.0010908307740464807,0.003272492438554764,-0.003272492438554764
246,105967,0.0,-0.029999999329447746,-0.2800000011920929,0.0010908307740464807,-0.0010908307740464807,-0.0010908307740464807
246,106943,0.0,-0.009999999776482582,-0.27000001072883606,0.0,-0.0010908307740464807,-0.0010908307740464807
246,107918,0.009999999776482582,-0.019999999552965164,-0.30000001192092896,0.0,-0.0021816615480929613,0.0
246,108890,0.0,0.0,-0.27000001072883606,0.0,-0.0021816615480929613,0.0010908307740464807
246,109968,0.0,-0.019999999552965164,-0.27000001072883606,0.0010908307740464807,0.0,0.0
246,110945,0.0,-0.009999999776482582,-0.28999999165534973,0.0,0.0010908307740464807,0.0
246,111921,0.0,-0.019999999552965164,-0.28999999165534973,-0.0021816615480929613,0.0,0.0
246,112898,-0.019999999552965164,-0.019999999552965164,-0.25999999046325684,0.0021816615480929613,0.0021816615480929613,0.0
246,113972,0.0,-0.029999999329447746,-0.2800000011920929,0.0,0.0,0.0
246,114951,0.0,-0.019999999552965164,-0.27000001072883606,-0.0010908307740464807,-0.0010908307740464807,-0.0021816615480929613
246,115928,-0.009999999776482582,-0.029999999329447746,-0.2800000011920929,-0.0010908307740464807,0.0,0.0
246,116903,-0.009999999776482582,-0.019999999552965164,-0.30000001192092896,0.0,-0.0010908307740464807,-0.0010908307740464807
246,117976,0.0,-0.009999999776482582,-0.28999999165534973,0.0010908307740464807,-0.0021816615480929613,0.0010908307740464807
246,8094,0.0,-0.009999999776482582,-0.27000001072883606,0.0,0.0010908307740464807,0.0
246,9673,-0.009999999776482582,0.0,-0.28999999165534973,0.0,0.0021816615480929613,0.0
246,10651,0.0,0.0,-0.30000001192092896,0.0010908307740464807,0.0,0.0010908307740464807
246,11730,0.0,-0.03999999910593033,-0.27000001072883606,0.0021816615480929613,0.0010908307740464807,0.0
246,12705,-0.009999999776482582,0.0,-0.28999999165534973,0.0,0.0010908307740464807,-0.0021816615480929613
246,13680,0.0,-0.009999999776482582,-0.2800000011920929,-0.0010908307740464807,-0.0021816615480929613,0.0010908307740464807
246,14655,-0.019999999552965164,0.0,-0.30000001192092896,0.0010908307740464807,0.0,-0.0010908307740464807
246,15731,0.0,0.0,-0.2800000011920929,0.0010908307740464807,0.0,0.0
246,16706,-0.03999999910593033,0.0,-0.2800000011920929,-0.0010908307740464807,0.0,0.0010908307740464807
246,17682,0.009999999776482582,-0.019999999552965164,-0.2800000011920929,-0.0010908307740464807,0.0021816615480929613,-0.0021816615480929613
246,18651,-0.009999999776482582,-0.019999999552965164,-0.28999999165534973,0.0010908307740464807,0.0021816615480929613,0.0
246,19724,-0.009999999776482582,-0.009999999776482582,-0.28999999165534973,0.0,0.0,0.0
246,20697,-0.009999999776482582,-0.009999999776482582,-0.27000001072883606,0.0010908307740464807,0.0,0.0
246,21669,-0.009999999776482582,0.0,-0.27000001072883606,0.0,0.0,-0.003272492438554764
246,22745,-0.009999999776482582,-0.029999999329447746,-0.28999999165534973,0.0,0.0,0.0
246,23722,0.0,-0.009999999776482582,-0.27000001072883606,0.0010908307740464807,-0.0021816615480929613,-0.0010908307740464807
246,8102,0.0,-0.009999999776482582,-0.30000001192092896,0.0010908307740464807,-0.003272492438554764,0.0010908307740464807
246,9675,-0.009999999776482582,-0.009999999776482582,-0.3100000023841858,-0.0010908307740464807,0.0,0.0021816615480929613
246,10647,0.0,-0.009999999776482582,-0.30000001192092896,0.0,0.0021816615480929613,0.0021816615480929613
246,11722,0.0,-0.009999999776482582,-0.30000001192092896,0.0021816615480929613,0.0,-0.0010908307740464807
246,12697,-0.009999999776482582,0.019999999552965164,-0.30000001192092896,-0.0010908307740464807,0.0021816615480929613,0.0
246,13672,-0.009999999776482582,0.0,-0.3100000023841858,0.0010908307740464807,-0.0010908307740464807,0.0010908307740464807
246,14596,0.0,0.0,-0.2800000011920929,0.0,0.0010908307740464807,-0.0010908307740464807
246,15715,0.0,0.0,-0.3100000023841858,-0.0010908307740464807,0.0010908307740464807,-0.0010908307740464807
246,16684,0.0,0.009999999776482582,-0.28999999165534973,0.0010908307740464807,-0.0010908307740464807,-0.0010908307740464807
246,17657,0.0,0.019999999552965164,-0.3199999928474426,-0.0010908307740464807,-0.0010908307740464807,0.0
246,18729,0.0,-0.009999999776482582,-0.3400000035762787,-0.0054541537538170815,-0.013089969754219055,-0.0010908307740464807
246,19701,-0.019999999552965164,0.0,-0.3199999928474426,0.0,0.0010908307740464807,-0.0010908307740464807
246,20670,-0.009999999776482582,0.0,-0.3199999928474426,-0.0010908307740464807,-0.003272492438554764,0.0
246,21740,-0.009999999776482582,0.009999999776482582,-0.28999999165534973,-0.0010908307740464807,0.0,0.0010908307740464807
246,22711,0.0,0.0,-0.3100000023841858,-0.0021816615480929613,0.0,-0.0010908307740464807
246,23683,0.019999999552965164,0.0,-0.28999999165534973,-0.0010908307740464807,0.0010908307740464807,0.0
246,24655,0.0,0.0,-0.2800000011920929,0.0,0.0010908307740464807,-0.0021816615480929613
246,25730,-0.009999999776482582,-0.009999999776482582,-0.33000001311302185,0.0010908307740464807,0.0,-0.0010908307740464807
246,26703,-0.009999999776482582,0.009999999776482582,-0.30000001192092896,0.0010908307740464807,0.0021816615480929613,-0.0010908307740464807
246,27678,-0.009999999776482582,0.009999999776482582,-0.30000001192092896,0.0,-0.0021816615480929613,-0.0010908307740464807
246,28651,0.0,0.0,-0.2800000011920929,0.0021816615480929613,-0.0021816615480929613,0.0010908307740464807
246,29723,0.0,0.0,-0.2800000011920929,0.0010908307740464807,0.0021816615480929613,-0.0021816615480929613
246,30698,-0.009999999776482582,-0.009999999776482582,-0.3100000023841858,-0.0010908307740464807,0.0010908307740464807,-0.0010908307740464807
246,31671,0.0,0.019999999552965164,-0.28999999165534973,-0.0010908307740464807,0.0,0.0021816615480929613
246,32644,0.0,0.05000000074505806,-0.2800000011920929,0.0,0.0,0.0010908307740464807
246,33716,-0.009999999776482582,0.009999999776482582,-0.27000001072883606,0.0,0.0,-0.0010908307740464807
246,34691,0.0,0.009999999776482582,-0.30000001192092896,-0.0010908307740464807,0.0021816615480929613,0.0021816615480929613
246,35661,0.0,0.0,-0.28999999165534973,0.0010908307740464807,0.0,-0.0010908307740464807
246,36736,-0.009999999776482582,0.029999999329447746,-0.28999999165534973,0.0,-0.0010908307740464807,0.0010908307740464807
246,37708,0.009999999776482582,0.0,-0.3100000023841858,0.0021816615480929613,0.0010908307740464807,-0.0021816615480929613
246,38686,0.009999999776482582,0.009999999776482582,-0.2800000011920929,0.0,-0.003272492438554764,-0.0010908307740464807
246,39659,0.009999999776482582,0.009999999776482582,-0.3100000023841858,0.0010908307740464807,-0.0010908307740464807,0.0010908307740464807
246,40739,0.0,0.009999999776482582,-0.28999999165534973,-0.0010908307740464807,-0.0021816615480929613,0.0021816615480929613
246,41715,0.0,0.009999999776482582,-0.3100000023841858,0.0010908307740464807,0.0010908307740464807,0.0
246,42689,0.0,0.009999999776482582,-0.3100000023841858,0.0010908307740464807,0.0010908307740464807,0.0
246,43664,0.0,0.019999999552965164,-0.3100000023841858,0.0,-0.0010908307740464807,0.0010908307740464807
246,44736,-0.009999999776482582,0.0,-0.3400000035762787,0.0,-0.0021816615480929613,0.0010908307740464807
246,45716,0.0,0.009999999776482582,-0.28999999165534973,0.0,-0.0010908307740464807,0.0
246,46687,0.0,0.0,-0.30000001192092896,0.0,-0.0010908307740464807,0.0
246,47658,-0.019999999552965164,0.009999999776482582,-0.3499999940395355,-0.0021816615480929613,-0.0021816615480929613,0.0
246,48733,0.0,0.0,-0.3100000023841858,0.0010908307740464807,0.004363323096185923,-0.0010908307740464807
246,49706,0.009999999776482582,0.019999999552965164,-0.3199999928474426,0.0010908307740464807,0.003272492438554764,0.0
